RunNumL,SetNumL,BattleNumL,FirstStimL,SecondStimL,ConfidenceL,OutcomeL,OutcomeNumL,ToneL,RunNumA,SetNumA,BattleNumA,FirstStimA,SecondStimA,ConfidenceA,OutcomeA,OutcomeNumA,ToneA,RunNumH,SetNumH,BattleNumH,FirstStimH,SecondStimH,ConfidenceH,OutcomeH,OutcomeNumH,ToneH,FullLoop.thisRepN,FullLoop.thisTrialN,FullLoop.thisN,FullLoop.thisIndex,loopL.thisRepN,loopL.thisTrialN,loopL.thisN,loopL.thisIndex,loop1.thisRepN,loop1.thisTrialN,loop1.thisN,loop1.thisIndex,loopA.thisRepN,loopA.thisTrialN,loopA.thisN,loopA.thisIndex,loop2.thisRepN,loop2.thisTrialN,loop2.thisN,loop2.thisIndex,loopH.thisRepN,loopH.thisTrialN,loopH.thisN,loopH.thisIndex,loop3.thisRepN,loop3.thisTrialN,loop3.thisN,loop3.thisIndex,trigger_image.started,trigger_resp.started,trigger_resp.keys,trigger_resp.rt,wait.started,wait.stopped,firststim_img_loop1.started,isi_conf_stim1_loop1.started,conf_img_stim1_loop1.started,conf_resp_stim1_loop1.started,conf_resp_stim1_loop1.keys,conf_resp_stim1_loop1.rt,isi_stim_1,isi_stim_loop1.started,isi_stim_loop1.stopped,secondstim_img_loop1.started,isi_conf_stim2_loop1.started,conf_img_stim2_loop1.started,conf_resp_stim2_loop1.started,conf_resp_stim2_loop1.keys,conf_resp_stim2_loop1.rt,isi_outcome.started,outcome_img_loop1.started,Tone_loop1.started,Tone_loop1.stopped,jitter_iti_1,iti_loop1.started,iti_loop1.stopped,secondstim_img_loop1.stopped,firststim_img_loop1.stopped,firststim_img_loop2.started,isi_conf_stim1_loop2.started,conf_img_stim1_loop2.started,conf_resp_stim1_loop2.started,conf_resp_stim1_loop2.keys,conf_resp_stim1_loop2.rt,isi_stim_2,isi_stim_loop2.started,isi_stim_loop2.stopped,secondstim_img_loop2.started,isi_conf_loop2.started,conf_img_stim2_loop2.started,conf_resp_stim2_loop2.started,conf_resp_stim2_loop2.keys,conf_resp_stim2_loop2.rt,outcome_image_loop2.started,Tone_loop2.started,Tone_loop2.stopped,jitter_iti_2,iti_loop2.started,iti_loop2.stopped,firststim_img_loop2.stopped,secondstim_img_loop2.stopped,outcome_image_loop2.stopped,firststim_img_loop3.started,isi_conf_stim1_loop3.started,conf_img_stim1_loop3.started,conf_resp_stim1_loop3.started,conf_resp_stim1_loop3.keys,conf_resp_stim1_loop3.rt,isi_stim_3,isi_stim_loop3.started,isi_stim_loop3.stopped,secondstim_img_loop3.started,isi_conf_stim2_loop3.started,conf_img_stim2_loop3.started,conf_resp_stim2_loop3.started,conf_resp_stim2_loop3.keys,conf_resp_stim2_loop3.rt,outcome_img_loop3.started,Tone_loop3.started,Tone_loop3.stopped,jitter_iti_3,iti_loop3.started,iti_loop3.stopped,firststim_img_loop3.stopped,secondstim_img_loop3.stopped,outcome_img_loop3.stopped,completion_prompt.started,completion_prompt_resp.started,completion_prompt_resp.keys,completion_prompt_resp.rt,participant,run,date,expName,psychopyVersion,frameRate,
,,,,,,,,,,,,,,,,,,,,,,,,,,,,,,,,,,,,,,,,,,,,,,,,,,,,,,,19.665759082883596,19.665759082883596,t,5.146643666084856,,,,,,,,,,,,,,,,,,,,,,,,,,,,,,,,,,,,,,,,,,,,,,,,,,,,,,,,,,,,,,,,,,,,,,,,,,,,,,,4.27,001,2023-12-10_16h27.50.007,Gen_Run1_Tone,2023.1.0,59.94736617461624,
1,1,12,img/Agent_LS.png,img/AW.png,img/confidence.png,img/won.png,1,img/Silent.wav,,,,,,,,,,,,,,,,,,,0,0,0,0,0,0,0,0,0,0,0,11,,,,,,,,,,,,,,,,,,,,,24.842978541040793,29.85987279098481,29.85987279098481,30.85907341586426,31.123991374857724,31.123991374857724,['c'],[1.0758920409716666],1.0,32.22589370794594,33.22923116595484,33.22923116595484,34.22557516605593,34.476896041072905,34.476896041072905,['c'],[0.40185858285985887],34.91252712486312,35.22120349993929,35.359282345534304,36.659686707891524,2.0,36.67654599994421,38.67801370797679,,,,,,,,,,,,,,,,,,,,,,,,,,,,,,,,,,,,,,,,,,,,,,,,,,,,,,,4.27,001,2023-12-10_16h27.50.007,Gen_Run1_Tone,2023.1.0,59.94736617461624,
1,1,3,img/Agent_LM.png,img/AM.png,img/confidence.png,img/won.png,1,img/Silent.wav,,,,,,,,,,,,,,,,,,,0,0,0,0,0,0,0,0,0,1,1,2,,,,,,,,,,,,,,,,,,,,,,,38.67801370797679,39.67612912505865,39.92574383295141,39.92574383295141,['b'],[1.0065048329997808],1.0,40.96027841605246,41.960118083050475,41.960118083050475,42.97626695805229,43.2267138750758,43.2267138750758,['c'],[1.2931045407894999],44.54363558301702,44.829519249964505,44.975866928487086,46.27584654092789,1.0,46.30928995786235,47.31113116606139,,,,,,,,,,,,,,,,,,,,,,,,,,,,,,,,,,,,,,,,,,,,,,,,,,,,,,,4.27,001,2023-12-10_16h27.50.007,Gen_Run1_Tone,2023.1.0,59.94736617461624,
1,1,18,img/Agent_LW.png,img/LM.png,img/confidence.png,img/lost.png,0,img/WhiteNoiseLong.wav,,,,,,,,,,,,,,,,,,,0,0,0,0,0,0,0,0,0,2,2,17,,,,,,,,,,,,,,,,,,,,,,,47.31113116606139,48.30961687490344,48.559548791032284,48.559548791032284,['c'],[0.3254281661938876],2.0,48.908835040871054,50.91103041591123,50.91103041591123,51.92611899995245,52.17590487492271,52.17590487492271,['a'],[0.2897098739631474],52.49327291594818,52.760532750049606,52.9264833035646,54.22610891587101,0.5,54.242834999924526,54.743536832975224,,,,,,,,,,,,,,,,,,,,,,,,,,,,,,,,,,,,,,,,,,,,,,,,,,,,,,,4.27,001,2023-12-10_16h27.50.007,Gen_Run1_Tone,2023.1.0,59.94736617461624,
1,1,7,img/Agent_LM.png,img/HW.png,img/confidence.png,img/won.png,1,img/Silent.wav,,,,,,,,,,,,,,,,,,,0,0,0,0,0,0,0,0,0,3,3,6,,,,,,,,,,,,,,,,,,,,,,,54.743536832975224,55.74288887507282,55.99263554089703,55.99263554089703,['c'],[0.18834833288565278],2.0,56.20968983299099,58.21083916607313,58.21083916607313,59.2100531659089,59.45949191600084,59.45949191600084,['b'],[0.5626410830300301],60.04263533302583,60.31745491595939,60.476376262516716,61.77610483299941,2.0,61.809441457968205,63.81035187491216,,,,,,,,,,,,,,,,,,,,,,,,,,,,,,,,,,,,,,,,,,,,,,,,,,,,,,,4.27,001,2023-12-10_16h27.50.007,Gen_Run1_Tone,2023.1.0,59.94736617461624,
1,1,24,img/Agent_LW.png,img/HW.png,img/confidence.png,img/won.png,1,img/Silent.wav,,,,,,,,,,,,,,,,,,,0,0,0,0,0,0,0,0,0,4,4,23,,,,,,,,,,,,,,,,,,,,,,,63.81035187491216,64.82614487502724,65.05987733299844,65.05987733299844,['b'],[1.0426997081376612],0.5,66.1260479579214,66.62697237497196,66.62697237497196,67.62668054085225,67.8761362079531,67.8761362079531,['b'],[0.40226204111240804],68.30960829090327,68.56649641599506,68.74346022054087,70.04285195795819,1.5,70.05941104097292,71.56035987497307,,,,,,,,,,,,,,,,,,,,,,,,,,,,,,,,,,,,,,,,,,,,,,,,,,,,,,,4.27,001,2023-12-10_16h27.50.007,Gen_Run1_Tone,2023.1.0,59.94736617461624,
1,1,23,img/Agent_LW.png,img/HM.png,img/confidence.png,img/won.png,1,img/Silent.wav,,,,,,,,,,,,,,,,,,,0,0,0,0,0,0,0,0,0,5,5,22,,,,,,,,,,,,,,,,,,,,,,,71.56035987497307,72.5598990409635,72.80986362486146,72.80986362486146,['b'],[0.44975362392142415],0.5,73.29336229106411,73.79445483302698,73.79445483302698,74.80994620802812,75.05949612497352,75.05949612497352,['a'],[0.4499432910233736],75.52679987507872,75.80019270791672,75.96081697035115,77.25981616601348,1.5,77.29283987497911,78.79402583301999,,,,,,,,,,,,,,,,,,,,,,,,,,,,,,,,,,,,,,,,,,,,,,,,,,,,,,,4.27,001,2023-12-10_16h27.50.007,Gen_Run1_Tone,2023.1.0,59.94736617461624,
1,1,15,img/Agent_LS.png,img/LM.png,img/confidence.png,img/won.png,1,img/Silent.wav,,,,,,,,,,,,,,,,,,,0,0,0,0,0,0,0,0,0,6,6,14,,,,,,,,,,,,,,,,,,,,,,,78.79402583301999,79.8097761659883,80.0595633329358,80.0595633329358,['c'],[0.09654195699840784],0.5,80.17603304097429,80.69086845801212,80.69086845801212,81.67625987506472,81.92607858288102,81.92607858288102,['b'],[0.7822751661296934],82.7268948329147,82.99971391586587,83.15962659546639,84.45982170803472,2.0,84.49289579107426,86.49412087490782,,,,,,,,,,,,,,,,,,,,,,,,,,,,,,,,,,,,,,,,,,,,,,,,,,,,,,,4.27,001,2023-12-10_16h27.50.007,Gen_Run1_Tone,2023.1.0,59.94736617461624,
1,1,21,img/Agent_LW.png,img/AS.png,img/confidence.png,img/won.png,1,img/Silent.wav,,,,,,,,,,,,,,,,,,,0,0,0,0,0,0,0,0,0,7,7,20,,,,,,,,,,,,,,,,,,,,,,,86.49412087490782,87.49274566606618,87.74305174988694,87.74305174988694,['b'],[0.2571675411891192],0.5,88.0260438749101,88.52666887501255,88.52666887501255,89.52637237496674,89.77637212490663,89.77637212490663,['c'],[0.24354833317920566],90.04355483292602,90.31635795789771,90.47743930344004,91.79313162504695,1.5,91.8094158328604,93.31033437489532,89.52637237496674,,,,,,,,,,,,,,,,,,,,,,,,,,,,,,,,,,,,,,,,,,,,,,,,,,,,,,4.27,001,2023-12-10_16h27.50.007,Gen_Run1_Tone,2023.1.0,59.94736617461624,
1,1,17,img/Agent_LW.png,img/HS.png,img/confidence.png,img/lost.png,0,img/WhiteNoiseLong.wav,,,,,,,,,,,,,,,,,,,0,0,0,0,0,0,0,0,0,8,8,16,,,,,,,,,,,,,,,,,,,,,,,93.31033437489532,94.30995499994606,94.55972587503493,94.55972587503493,['b'],[0.3446662079077214],1.5,94.92685645795427,96.42648712499067,96.42648712499067,97.42625991604291,97.69269179087132,97.69269179087132,['b'],[1.337710291147232],99.06048412504606,99.32722441595979,99.49301192841958,100.79294079099782,0.5,100.82640816597268,101.32707729097456,97.42625991604291,94.30995499994606,,,,,,,,,,,,,,,,,,,,,,,,,,,,,,,,,,,,,,,,,,,,,,,,,,,,,4.27,001,2023-12-10_16h27.50.007,Gen_Run1_Tone,2023.1.0,59.94736617461624,
1,1,5,img/Agent_LM.png,img/AW.png,img/confidence.png,img/won.png,1,img/Silent.wav,,,,,,,,,,,,,,,,,,,0,0,0,0,0,0,0,0,0,9,9,4,,,,,,,,,,,,,,,,,,,,,,,101.32707729097456,102.34292329102755,102.57616062485613,102.57616062485613,['b'],[0.2647549989633262],0.5,102.85921899997629,103.36033733305521,103.36033733305521,104.3595769579988,104.62618745793588,104.62618745793588,['c'],[0.2946966658346355],104.94310724991374,105.21645333291963,105.37646967850159,106.67627870803699,2.0,106.70984595804475,108.71041916590184,104.3595769579988,,,,,,,,,,,,,,,,,,,,,,,,,,,,,,,,,,,,,,,,,,,,,,,,,,,,,,4.27,001,2023-12-10_16h27.50.007,Gen_Run1_Tone,2023.1.0,59.94736617461624,
1,1,1,img/Agent_LM.png,img/HM.png,img/confidence.png,img/lost.png,0,img/WhiteNoiseLong.wav,,,,,,,,,,,,,,,,,,,0,0,0,0,0,0,0,0,0,10,10,0,,,,,,,,,,,,,,,,,,,,,,,108.71041916590184,109.70925195794553,109.97628133301623,109.97628133301623,['b'],[0.29452200001105666],1.5,110.29363849991933,111.79356091585942,111.79356091585942,112.79314508289099,113.05982987489551,113.05982987489551,['b'],[0.3422272908501327],113.42696079099551,113.67741062492132,113.85980759540107,115.15963537502103,2.0,115.17653424991295,117.1769583330024,112.79314508289099,,,,,,,,,,,,,,,,,,,,,,,,,,,,,,,,,,,,,,,,,,,,,,,,,,,,,,4.27,001,2023-12-10_16h27.50.007,Gen_Run1_Tone,2023.1.0,59.94736617461624,
1,1,20,img/Agent_LW.png,img/AM.png,img/confidence.png,img/won.png,1,img/Silent.wav,,,,,,,,,,,,,,,,,,,0,0,0,0,0,0,0,0,0,11,11,19,,,,,,,,,,,,,,,,,,,,,,,117.1769583330024,118.17606787499972,118.42642499995418,118.42642499995418,['a'],[0.5689642908982933],0.5,119.02590695791878,119.52672333293594,119.52672333293594,120.52627074997872,120.79298595804721,120.79298595804721,['c'],[0.24091429100371897],121.05901808291674,121.33308295789175,121.49301105344202,122.79333600006066,2.0,122.82617779099382,124.82662974996492,120.52627074997872,,,,,,,,,,,,,,,,,,,,,,,,,,,,,,,,,,,,,,,,,,,,,,,,,,,,,,4.27,001,2023-12-10_16h27.50.007,Gen_Run1_Tone,2023.1.0,59.94736617461624,
1,1,6,img/Agent_LM.png,img/HS.png,img/confidence.png,img/won.png,1,img/Silent.wav,,,,,,,,,,,,,,,,,,,0,0,0,0,0,0,0,0,0,12,12,5,,,,,,,,,,,,,,,,,,,,,,,124.82662974996492,125.82689016591758,126.07603195798583,126.07603195798583,['b'],[0.31432420713827014],1.0,126.40994912502356,127.40991012495942,127.40991012495942,128.40953875007108,128.67616824992,128.67616824992,['b'],[0.4786589990835637],129.17581166606396,129.4497262078803,129.60947688741143,130.9096012909431,1.0,130.9432740409393,131.94351450004615,128.40953875007108,,,,,,,,,,,,,,,,,,,,,,,,,,,,,,,,,,,,,,,,,,,,,,,,,,,,,,4.27,001,2023-12-10_16h27.50.007,Gen_Run1_Tone,2023.1.0,59.94736617461624,
1,1,14,img/Agent_LS.png,img/HW.png,img/confidence.png,img/won.png,1,img/Silent.wav,,,,,,,,,,,,,,,,,,,0,0,0,0,0,0,0,0,0,13,13,13,,,,,,,,,,,,,,,,,,,,,,,131.94351450004615,132.94276291597635,133.2096506250091,133.2096506250091,['c'],[0.08640441601164639],0.5,133.3264734579716,133.82720374991186,133.82720374991186,134.84315037494525,135.09285133285448,135.09285133285448,['c'],[0.2554349990095943],135.37684591603465,135.6329643749632,135.80983238739427,137.10959833301604,0.5,137.12646004091948,137.62694512493908,,132.94276291597635,,,,,,,,,,,,,,,,,,,,,,,,,,,,,,,,,,,,,,,,,,,,,,,,,,,,,4.27,001,2023-12-10_16h27.50.007,Gen_Run1_Tone,2023.1.0,59.94736617461624,
1,1,19,img/Agent_LW.png,img/LS.png,img/confidence.png,img/lost.png,0,img/WhiteNoiseLong.wav,,,,,,,,,,,,,,,,,,,0,0,0,0,0,0,0,0,0,14,14,18,,,,,,,,,,,,,,,,,,,,,,,137.62694512493908,138.6268842909485,138.87608754099347,138.87608754099347,['b'],[0.35848512407392263],1.0,139.25980687490664,140.26034108293243,140.26034108293243,141.25979762501083,141.52608149987645,141.52608149987645,['a'],[0.06470541609451175],141.6099578749854,141.87740129092708,142.0429128455231,143.34279370796867,1.0,143.37635062495247,144.37670583301224,141.25979762501083,,,,,,,,,,,,,,,,,,,,,,,,,,,,,,,,,,,,,,,,,,,,,,,,,,,,,,4.27,001,2023-12-10_16h27.50.007,Gen_Run1_Tone,2023.1.0,59.94736617461624,
1,1,8,img/Agent_LM.png,img/LW.png,img/confidence.png,img/won.png,1,img/Silent.wav,,,,,,,,,,,,,,,,,,,0,0,0,0,0,0,0,0,0,15,15,7,,,,,,,,,,,,,,,,,,,,,,,144.37670583301224,145.37652374990284,145.64309154101647,145.64309154101647,['b'],[0.33184124901890755],2.0,145.99253099993803,147.99408929096535,147.99408929096535,149.00933729088865,149.25936754094437,149.25936754094437,['b'],[0.4286612079013139],149.7093989159912,149.9829314579256,150.14338392836507,151.4432941658888,1.0,151.47660112497397,152.47691649990156,,145.37652374990284,,,,,,,,,,,,,,,,,,,,,,,,,,,,,,,,,,,,,,,,,,,,,,,,,,,,,4.27,001,2023-12-10_16h27.50.007,Gen_Run1_Tone,2023.1.0,59.94736617461624,
1,1,16,img/Agent_LS.png,img/LW.png,img/confidence.png,img/won.png,1,img/Silent.wav,,,,,,,,,,,,,,,,,,,0,0,0,0,0,0,0,0,0,16,16,15,,,,,,,,,,,,,,,,,,,,,,,152.47691649990156,153.4763552909717,153.74282662500627,153.74282662500627,['c'],[1.0318897489923984],1.5,154.7935521248728,156.29331995802931,156.29331995802931,157.29284870787524,157.5425394999329,157.5425394999329,['c'],[0.28083008294925094],157.8433737498708,158.0997929580044,158.27640630353707,159.57658345787786,1.5,159.59292333293706,161.09352770796977,,153.4763552909717,,,,,,,,,,,,,,,,,,,,,,,,,,,,,,,,,,,,,,,,,,,,,,,,,,,,,4.27,001,2023-12-10_16h27.50.007,Gen_Run1_Tone,2023.1.0,59.94736617461624,
1,1,11,img/Agent_LS.png,img/AS.png,img/confidence.png,img/won.png,1,img/Silent.wav,,,,,,,,,,,,,,,,,,,0,0,0,0,0,0,0,0,0,17,17,10,,,,,,,,,,,,,,,,,,,,,,,161.09352770796977,162.0926012499258,162.35929929092526,162.35929929092526,['c'],[0.2777836660388857],0.5,162.6601887079887,163.17646212503314,163.17646212503314,164.17599879088812,164.4426716249436,164.4426716249436,['c'],[0.3252452490851283],164.79251954099163,165.06677579088137,165.22580801255535,166.5263036249671,1.5,166.55953545798548,168.06039920798503,,162.0926012499258,,,,,,,,,,,,,,,,,,,,,,,,,,,,,,,,,,,,,,,,,,,,,,,,,,,,,4.27,001,2023-12-10_16h27.50.007,Gen_Run1_Tone,2023.1.0,59.94736617461624,
1,1,10,img/Agent_LS.png,img/AM.png,img/confidence.png,img/won.png,1,img/Silent.wav,,,,,,,,,,,,,,,,,,,0,0,0,0,0,0,0,0,0,18,18,9,,,,,,,,,,,,,,,,,,,,,,,168.06039920798503,169.07633141591214,169.3259625409264,169.3259625409264,['c'],[0.22924687410704792],1.0,169.57677662489004,170.57652533287182,170.57652533287182,171.57617804105394,171.82604362489656,171.82604362489656,['c'],[0.42927820701152086],172.27670008293353,172.54989312496036,172.70971372050698,174.0098602909129,2.0,174.04284729086794,176.04294954100624,,,,,,,,,,,,,,,,,,,,,,,,,,,,,,,,,,,,,,,,,,,,,,,,,,,,,,,4.27,001,2023-12-10_16h27.50.007,Gen_Run1_Tone,2023.1.0,59.94736617461624,
1,1,13,img/Agent_LS.png,img/HM.png,img/confidence.png,img/won.png,1,img/Silent.wav,,,,,,,,,,,,,,,,,,,0,0,0,0,0,0,0,0,0,19,19,12,,,,,,,,,,,,,,,,,,,,,,,176.04294954100624,177.04249312495813,177.29298029094934,177.29298029094934,['c'],[0.25896479096263647],1.5,177.5750923329033,179.07715895795263,179.07715895795263,180.0759876249358,180.34264441602863,180.34264441602863,['c'],[0.6541987909004092],181.02574779093266,181.29969358304515,181.45964284546207,182.75950695807114,1.5,182.79303024988621,184.29339020792395,180.0759876249358,,,,,,,,,,,,,,,,,,,,,,,,,,,,,,,,,,,,,,,,,,,,,,,,,,,,,,4.27,001,2023-12-10_16h27.50.007,Gen_Run1_Tone,2023.1.0,59.94736617461624,
1,1,4,img/Agent_LM.png,img/AS.png,img/confidence.png,img/won.png,1,img/Silent.wav,,,,,,,,,,,,,,,,,,,0,0,0,0,0,0,0,0,0,20,20,3,,,,,,,,,,,,,,,,,,,,,,,184.29339020792395,185.29277654085308,185.54261408303864,185.54261408303864,['a'],[0.3759005831088871],0.5,185.9423035408836,186.44312908290885,186.44312908290885,187.44272804097272,187.70967158302665,187.70967158302665,['c'],[0.2650668330024928],187.99301716592163,188.2664163329173,188.4263708454324,189.72666804096662,0.5,189.75978591595776,190.26003300002776,187.44272804097272,,,,,,,,,,,,,,,,,,,,,,,,,,,,,,,,,,,,,,,,,,,,,,,,,,,,,,4.27,001,2023-12-10_16h27.50.007,Gen_Run1_Tone,2023.1.0,59.94736617461624,
1,1,9,img/Agent_LS.png,img/HS.png,img/confidence.png,img/lost.png,0,img/WhiteNoiseLong.wav,,,,,,,,,,,,,,,,,,,0,0,0,0,0,0,0,0,0,21,21,8,,,,,,,,,,,,,,,,,,,,,,,190.26003300002776,191.25945841590874,191.50935970805585,191.50935970805585,['c'],[0.2774161659181118],1.0,191.8096934580244,192.81024791602977,192.81024791602977,193.80934949987568,194.0760737909004,194.0760737909004,['c'],[0.27281670714728534],194.3769209999591,194.6441832499113,194.80920447038952,196.10939145786688,1.5,196.14290774986148,197.6435240409337,193.80934949987568,191.25945841590874,,,,,,,,,,,,,,,,,,,,,,,,,,,,,,,,,,,,,,,,,,,,,,,,,,,,,4.27,001,2023-12-10_16h27.50.007,Gen_Run1_Tone,2023.1.0,59.94736617461624,
1,1,2,img/Agent_LM.png,img/LS.png,img/confidence.png,img/lost.png,0,img/WhiteNoiseLong.wav,,,,,,,,,,,,,,,,,,,0,0,0,0,0,0,0,0,0,22,22,1,,,,,,,,,,,,,,,,,,,,,,,197.6435240409337,198.64211483299732,198.90913391602226,198.90913391602226,['c'],[0.13059591595083475],0.5,199.06030558305793,199.57634983304888,199.57634983304888,200.57638366590254,200.84272637497634,200.84272637497634,['a'],[0.25606083287857473],201.12644737493247,201.393345749937,201.55960292837116,202.8595786660444,1.5,202.89269920787774,204.3938667080365,200.57638366590254,,,,,,,,,,,,,,,,,,,,,,,,,,,,,,,,,,,,,,,,,,,,,,,,,,,,,,4.27,001,2023-12-10_16h27.50.007,Gen_Run1_Tone,2023.1.0,59.94736617461624,
1,1,22,img/Agent_LW.png,img/AW.png,img/confidence.png,img/won.png,1,img/Silent.wav,,,,,,,,,,,,,,,,,,,0,0,0,0,0,0,0,0,0,23,23,21,,,,,,,,,,,,,,,,,,,,,,,204.3938667080365,205.3929281658493,205.64269674988464,205.64269674988464,['b'],[0.48875004099681973],1.0,206.1593652078882,207.160165540874,207.160165540874,208.15930895786732,208.4132189580705,208.4132189580705,['c'],[0.26156962383538485],208.6930249580182,208.96990583301522,209.12644538751337,210.42596087488346,2.0,210.4595702078659,212.47107370803133,,,,,,,,,,,,,,,,,,,,,,,,,,,,,,,,,,,,,,,,,,,,,,,,,,,,,,,4.27,001,2023-12-10_16h27.50.007,Gen_Run1_Tone,2023.1.0,59.94736617461624,
,,,,,,,,,1,1,59,img/Agent_AS.png,img/LW.png,img/confidence.png,img/lost.png,0,img/WhiteNoiseLong.wav,,,,,,,,,,0,0,0,0,,,,,,,,,0,0,0,0,0,0,0,10,,,,,,,,,,,,,,,,,,,,,,,,,,,,,,217.67616208293475,,,,,,,,,212.47107370803133,213.47602258296683,213.70976374996826,213.70976374996826,['a'],[1.3434951659291983],1.0,215.07596212485805,216.077581374906,216.077581374906,217.09300812496804,217.3284457079135,217.3284457079135,['a'],[0.3248689160682261],217.94574995804578,218.10978934543672,219.4094095409382,1.0,219.4433703329414,220.44355616602115,,,,,,,,,,,,,,,,,,,,,,,,,,,,,,,,4.27,001,2023-12-10_16h27.50.007,Gen_Run1_Tone,2023.1.0,59.94736617461624,
,,,,,,,,,1,1,61,img/Agent_AS.png,img/HW.png,img/confidence.png,img/lost.png,0,img/WhiteNoiseLong.wav,,,,,,,,,,0,0,0,0,,,,,,,,,0,0,0,0,0,1,1,12,,,,,,,,,,,,,,,,,,,,,,,,,,,,,,224.87604779098183,,,,,,,,,220.44355616602115,221.44277454097755,221.69300620793365,221.69300620793365,['b'],[0.5900379570666701],1.0,222.30931070796214,223.31067899987102,223.31067899987102,224.32611554092728,224.57618075003847,224.57618075003847,['a'],[0.2679664990864694],225.12768437503837,225.30951747044455,226.60926195792854,1.0,226.64266550005414,227.6447830828838,221.44277454097755,,,,,,,,,,,,,,,,,,,,,,,,,,,,,,,4.27,001,2023-12-10_16h27.50.007,Gen_Run1_Tone,2023.1.0,59.94736617461624,
,,,,,,,,,1,1,49,img/Agent_AM.png,img/LS.png,img/confidence.png,img/lost.png,0,img/WhiteNoiseLong.wav,,,,,,,,,,0,0,0,0,,,,,,,,,0,0,0,0,0,2,2,0,,,,,,,,,,,,,,,,,,,,,,,,,,,,,,231.74392795795575,,,,,,,,,227.6447830828838,228.64338137488812,228.91008241591044,228.91008241591044,['a'],[0.2482210409361869],1.0,229.17595670791343,230.17645333288237,230.17645333288237,231.17646391596645,231.42593037500046,231.42593037500046,['a'],[0.29151558317244053],232.01035437500104,232.17677592837717,233.47524170787074,1.5,233.5095439159777,235.00967620802112,,,,,,,,,,,,,,,,,,,,,,,,,,,,,,,,4.27,001,2023-12-10_16h27.50.007,Gen_Run1_Tone,2023.1.0,59.94736617461624,
,,,,,,,,,1,1,57,img/Agent_AS.png,img/LS.png,img/confidence.png,img/lost.png,0,img/WhiteNoiseLong.wav,,,,,,,,,,0,0,0,0,,,,,,,,,0,0,0,0,0,3,3,8,,,,,,,,,,,,,,,,,,,,,,,,,,,,,,240.15962687507272,,,,,,,,,235.00967620802112,236.01001558289863,236.25934750004672,236.25934750004672,['b'],[0.2967108739539981],2.0,236.57653816603124,238.59101249999367,238.59101249999367,239.57632779097185,239.8267078329809,239.8267078329809,['a'],[0.3124004160054028],240.42658533295617,240.5932428455213,241.8931454580743,1.0,241.9261167498771,242.92919379100204,,,,,,,,,,,,,,,,,,,,,,,,,,,,,,,,4.27,001,2023-12-10_16h27.50.007,Gen_Run1_Tone,2023.1.0,59.94736617461624,
,,,,,,,,,1,1,69,img/Agent_AW.png,img/HM.png,img/confidence.png,img/lost.png,0,img/WhiteNoiseLong.wav,,,,,,,,,,0,0,0,0,,,,,,,,,0,0,0,0,0,4,4,20,,,,,,,,,,,,,,,,,,,,,,,,,,,,,,247.55893024988472,,,,,,,,,242.92919379100204,243.9435042908881,244.1926164580509,244.1926164580509,['a'],[0.297452291008085],1.5,244.5096981250681,246.0099639580585,246.0099639580585,247.00955679104663,247.2593578749802,247.2593578749802,['b'],[0.2734594570938498],247.82644466590136,247.9931246785214,249.29255858296528,0.5,249.32607320789248,249.82686366606504,,,,,,,,,,,,,,,,,,,,,,,,,,,,,,,,4.27,001,2023-12-10_16h27.50.007,Gen_Run1_Tone,2023.1.0,59.94736617461624,
,,,,,,,,,1,1,62,img/Agent_AS.png,img/AW.png,img/confidence.png,img/won.png,1,img/Silent.wav,,,,,,,,,,0,0,0,0,,,,,,,,,0,0,0,0,0,5,5,13,,,,,,,,,,,,,,,,,,,,,,,,,,,,,,254.22556258295663,,,,,,,,,249.82686366606504,250.82656870805658,251.0926653749775,251.0926653749775,['b'],[0.5097701661288738],0.5,251.62585516599938,252.12772612506524,252.12772612506524,253.1264687080402,253.37647970789112,253.37647970789112,['a'],[0.8265911238268018],254.5170085830614,254.67617338735144,255.9762200829573,1.0,255.99279349995777,256.99307950004004,250.82656870805658,,,,,,,,,,,,,,,,,,,,,,,,,,,,,,,4.27,001,2023-12-10_16h27.50.007,Gen_Run1_Tone,2023.1.0,59.94736617461624,
,,,,,,,,,1,1,64,img/Agent_AS.png,img/AM.png,img/confidence.png,img/won.png,1,img/Silent.wav,,,,,,,,,,0,0,0,0,,,,,,,,,0,0,0,0,0,6,6,15,,,,,,,,,,,,,,,,,,,,,,,,,,,,,,260.8262947909534,,,,,,,,,256.99307950004004,257.9929317908827,258.25967312487774,258.25967312487774,['b'],[0.28072374896146357],0.5,258.56021520798095,259.0607934158761,259.0607934158761,260.0758697078563,260.32604499999434,260.32604499999434,['b'],[0.4679895411245525],261.1165129998699,261.2594105124241,262.55932662496343,2.0,262.59306475007907,264.59415141586214,257.9929317908827,,,,,,,,,,,,,,,,,,,,,,,,,,,,,,,4.27,001,2023-12-10_16h27.50.007,Gen_Run1_Tone,2023.1.0,59.94736617461624,
,,,,,,,,,1,1,71,img/Agent_AW.png,img/AM.png,img/confidence.png,img/lost.png,0,img/WhiteNoiseLong.wav,,,,,,,,,,0,0,0,0,,,,,,,,,0,0,0,0,0,7,7,22,,,,,,,,,,,,,,,,,,,,,,,,,,,,,,269.79268683306873,,,,,,,,,264.59415141586214,265.5931492908858,265.84264270798303,265.84264270798303,['a'],[0.33797429082915187],2.0,266.2092942078598,268.2097621250432,268.2097621250432,269.20943074999377,269.45955266593955,269.45955266593955,['a'],[0.3065736659336835],270.04437637492083,270.22626863748303,271.52622362505645,2.0,271.5429332079366,273.54447750002146,,269.20943074999377,,,,,,,,,,,,,,,,,,,,,,,,,,,,,,4.27,001,2023-12-10_16h27.50.007,Gen_Run1_Tone,2023.1.0,59.94736617461624,
,,,,,,,,,1,1,55,img/Agent_AM.png,img/HS.png,img/confidence.png,img/won.png,1,img/Silent.wav,,,,,,,,,,0,0,0,0,,,,,,,,,0,0,0,0,0,8,8,6,,,,,,,,,,,,,,,,,,,,,,,,,,,,,,277.0599817498587,,,,,,,,,273.54447750002146,274.5594295829069,274.80965095805004,274.80965095805004,['b'],[0.1319201251026243],0.5,274.95936166588217,275.460106540937,275.460106540937,276.4597875829786,276.72610170789994,276.72610170789994,['a'],[0.3030214160680771],277.33319895807654,277.4925758035621,278.79287287499756,0.5,278.8258699160069,279.32700208295137,,,,,,,,,,,,,,,,,,,,,,,,,,,,,,,,4.27,001,2023-12-10_16h27.50.007,Gen_Run1_Tone,2023.1.0,59.94736617461624,
,,,,,,,,,1,1,67,img/Agent_AW.png,img/LW.png,img/confidence.png,img/lost.png,0,img/WhiteNoiseLong.wav,,,,,,,,,,0,0,0,0,,,,,,,,,0,0,0,0,0,9,9,18,,,,,,,,,,,,,,,,,,,,,,,,,,,,,,283.27580425003543,,,,,,,,,279.32700208295137,280.3266932910774,280.59292891598307,280.59292891598307,['a'],[0.5868250411003828],0.5,281.209730790928,281.71046920795925,281.71046920795925,282.70963879092596,282.97633870807476,282.97633870807476,['a'],[0.2777348319068551],283.5431054159999,283.7095340953907,285.00949399988167,1.0,285.04293287498876,286.0451362079475,280.3266932910774,282.70963879092596,,,,,,,,,,,,,,,,,,,,,,,,,,,,,,4.27,001,2023-12-10_16h27.50.007,Gen_Run1_Tone,2023.1.0,59.94736617461624,
,,,,,,,,,1,1,52,img/Agent_AM.png,img/HM.png,img/confidence.png,img/lost.png,0,img/WhiteNoiseLong.wav,,,,,,,,,,0,0,0,0,,,,,,,,,0,0,0,0,0,10,10,3,,,,,,,,,,,,,,,,,,,,,,,,,,,,,,289.7436359159183,,,,,,,,,286.0451362079475,287.04284387500957,287.3095226250589,287.3095226250589,['a'],[0.2717324569821358],0.5,287.6093786249403,288.111069916049,288.111069916049,289.126732124947,289.35963104106486,289.35963104106486,['a'],[0.3666936659719795],290.010196124902,290.1763367203763,291.4764275830239,1.5,291.50981029099785,293.01024779095314,,,,,,,,,,,,,,,,,,,,,,,,,,,,,,,,4.27,001,2023-12-10_16h27.50.007,Gen_Run1_Tone,2023.1.0,59.94736617461624,
,,,,,,,,,1,1,51,img/Agent_AM.png,img/LW.png,img/confidence.png,img/lost.png,0,img/WhiteNoiseLong.wav,,,,,,,,,,0,0,0,0,,,,,,,,,0,0,0,0,0,11,11,2,,,,,,,,,,,,,,,,,,,,,,,,,,,,,,296.62675108294934,,,,,,,,,293.01024779095314,294.00954158301465,294.25959737505764,294.25959737505764,['b'],[0.28582633286714554],0.5,294.57611091597937,295.07648979104124,295.07648979104124,296.07633191603236,296.32633520802483,296.32633520802483,['a'],[0.26973433303646743],296.8936916249804,297.05999772043435,298.358824665891,1.5,298.39293845789507,299.8948077908717,,,,,,,,,,,,,,,,,,,,,,,,,,,,,,,,4.27,001,2023-12-10_16h27.50.007,Gen_Run1_Tone,2023.1.0,59.94736617461624,
,,,,,,,,,1,1,63,img/Agent_AS.png,img/HM.png,img/confidence.png,img/won.png,1,img/Silent.wav,,,,,,,,,,0,0,0,0,,,,,,,,,0,0,0,0,0,12,12,14,,,,,,,,,,,,,,,,,,,,,,,,,,,,,,303.4596197910141,,,,,,,,,299.8948077908717,300.90967549989,301.1595915830694,301.1595915830694,['a'],[0.287627749145031],0.5,301.4757381249219,301.97697299998254,301.97697299998254,302.97630395786837,303.24276354094036,303.24276354094036,['a'],[0.19881516601890326],303.7332025829237,303.8931433875347,305.19330058293417,2.0,305.226139791077,307.2264070410747,,302.97630395786837,,,,,,,,,,,,,,,,,,,,,,,,,,,,,,4.27,001,2023-12-10_16h27.50.007,Gen_Run1_Tone,2023.1.0,59.94736617461624,
,,,,,,,,,1,1,65,img/Agent_AW.png,img/LS.png,img/confidence.png,img/lost.png,0,img/WhiteNoiseLong.wav,,,,,,,,,,0,0,0,0,,,,,,,,,0,0,0,0,0,13,13,16,,,,,,,,,,,,,,,,,,,,,,,,,,,,,,311.6765931660775,,,,,,,,,307.2264070410747,308.2265238328837,308.4761768330354,308.4761768330354,['a'],[0.2407793749589473],1.5,308.74299562489614,310.2438420408871,310.2438420408871,311.2587216249667,311.5094718330074,311.5094718330074,['a'],[0.13704012497328222],311.9428799159359,312.1100146374898,313.4095558328554,0.5,313.44226445793174,313.9435284580104,,,,,,,,,,,,,,,,,,,,,,,,,,,,,,,,4.27,001,2023-12-10_16h27.50.007,Gen_Run1_Tone,2023.1.0,59.94736617461624,
,,,,,,,,,1,1,72,img/Agent_AW.png,img/HW.png,img/confidence.png,img/lost.png,0,img/WhiteNoiseLong.wav,,,,,,,,,,0,0,0,0,,,,,,,,,0,0,0,0,0,14,14,23,,,,,,,,,,,,,,,,,,,,,,,,,,,,,,318.0766319159884,,,,,,,,,313.9435284580104,314.94270291598514,315.19265424995683,315.19265424995683,['a'],[0.2639529160223901],1.0,315.4758957079612,316.4778322079219,316.4778322079219,317.49243695801124,317.74353404087014,317.74353404087014,['a'],[0.3076008749194443],318.32706854096614,318.5095294704894,319.80897962488234,0.5,319.8423456249293,320.34374312497675,314.94270291598514,,,,,,,,,,,,,,,,,,,,,,,,,,,,,,,4.27,001,2023-12-10_16h27.50.007,Gen_Run1_Tone,2023.1.0,59.94736617461624,
,,,,,,,,,1,1,66,img/Agent_AW.png,img/LM.png,img/confidence.png,img/lost.png,0,img/WhiteNoiseLong.wav,,,,,,,,,,0,0,0,0,,,,,,,,,0,0,0,0,0,15,15,17,,,,,,,,,,,,,,,,,,,,,,,,,,,,,,324.6925918329507,,,,,,,,,320.34374312497675,321.34296362497844,321.5928172080312,321.5928172080312,['a'],[0.15484412387013435],1.5,321.77669891598634,323.27780229086056,323.27780229086056,324.2762394999154,324.5261461660266,324.5261461660266,['a'],[0.1430571659002453],324.96060758293606,325.12651517849883,326.426010832889,1.5,326.4590352079831,327.9603438328486,,,,,,,,,,,,,,,,,,,,,,,,,,,,,,,,4.27,001,2023-12-10_16h27.50.007,Gen_Run1_Tone,2023.1.0,59.94736617461624,
,,,,,,,,,1,1,56,img/Agent_AM.png,img/AS.png,img/confidence.png,img/won.png,1,img/Silent.wav,,,,,,,,,,0,0,0,0,,,,,,,,,0,0,0,0,0,16,16,7,,,,,,,,,,,,,,,,,,,,,,,,,,,,,,333.442601375049,,,,,,,,,327.9603438328486,328.95969104091637,329.22586591588333,329.22586591588333,['a'],[0.8798100408166647],1.0,330.12574187503196,331.12685412494466,331.12685412494466,332.1261497079395,332.37657891586423,332.37657891586423,['a'],[1.046406373847276],333.72283650003374,333.8763388034655,335.17608641600236,1.0,335.2092388330493,336.21057904092595,,,,,,,,,,,,,,,,,,,,,,,,,,,,,,,,4.27,001,2023-12-10_16h27.50.007,Gen_Run1_Tone,2023.1.0,59.94736617461624,
,,,,,,,,,1,1,50,img/Agent_AM.png,img/LM.png,img/confidence.png,img/lost.png,0,img/WhiteNoiseLong.wav,,,,,,,,,,0,0,0,0,,,,,,,,,0,0,0,0,0,17,17,1,,,,,,,,,,,,,,,,,,,,,,,,,,,,,,341.4590847499203,,,,,,,,,336.21057904092595,337.2259231659118,337.4761929579545,337.4761929579545,['a'],[0.4360044989734888],2.0,337.9436007910408,339.94339633290656,339.94339633290656,340.9431105409749,341.1927895830013,341.1927895830013,['a'],[0.24820937402546406],341.72698920802213,341.8930506785633,343.19311266602017,1.0,343.22636020788923,344.24497945792973,,,,,,,,,,,,,,,,,,,,,,,,,,,,,,,,4.27,001,2023-12-10_16h27.50.007,Gen_Run1_Tone,2023.1.0,59.94736617461624,
,,,,,,,,,1,1,70,img/Agent_AW.png,img/AS.png,img/confidence.png,img/lost.png,0,img/WhiteNoiseLong.wav,,,,,,,,,,0,0,0,0,,,,,,,,,0,0,0,0,0,18,18,21,,,,,,,,,,,,,,,,,,,,,,,,,,,,,,347.6928010410629,,,,,,,,,344.24497945792973,345.2594013749622,345.5094306659885,345.5094306659885,['a'],[0.29889216599985957],0.5,345.8267806658987,346.3265627499204,346.3265627499204,347.326116082957,347.59271466592327,347.59271466592327,['a'],[0.07563591585494578],347.9598126660567,348.1264792625094,349.42611904093064,1.0,349.45974879106507,350.4600785828661,,,,,,,,,,,,,,,,,,,,,,,,,,,,,,,,4.27,001,2023-12-10_16h27.50.007,Gen_Run1_Tone,2023.1.0,59.94736617461624,
,,,,,,,,,1,1,58,img/Agent_AS.png,img/LM.png,img/confidence.png,img/lost.png,0,img/WhiteNoiseLong.wav,,,,,,,,,,0,0,0,0,,,,,,,,,0,0,0,0,0,19,19,9,,,,,,,,,,,,,,,,,,,,,,,,,,,,,,355.1424164578784,,,,,,,,,350.4600785828661,351.47619070787914,351.7259661250282,351.7259661250282,['b'],[0.8747517501469702],1.0,352.62667124997824,353.62696412485093,353.62696412485093,354.6265788329765,354.8925418329891,354.8925418329891,['a'],[0.2234010410029441],355.3934209579602,355.5762088455027,356.8759959999006,1.0,356.8926091250032,357.89337125001475,,354.6265788329765,,,,,,,,,,,,,,,,,,,,,,,,,,,,,,4.27,001,2023-12-10_16h27.50.007,Gen_Run1_Tone,2023.1.0,59.94736617461624,
,,,,,,,,,1,1,54,img/Agent_AM.png,img/AS.png,img/confidence.png,img/lost.png,0,img/WhiteNoiseLong.wav,,,,,,,,,,0,0,0,0,,,,,,,,,0,0,0,0,0,20,20,5,,,,,,,,,,,,,,,,,,,,,,,,,,,,,,362.6090459160041,,,,,,,,,357.89337125001475,358.89297633292153,359.14288016594946,359.14288016594946,['a'],[0.3930747490376234],1.5,359.55928533291444,361.0599476250354,361.0599476250354,362.05921670794487,362.32584937498905,362.32584937498905,['a'],[0.254177374066785],362.8761605829932,363.0429450124735,364.3431318330113,1.5,364.3761622500606,365.87672358285636,358.89297633292153,362.05921670794487,,,,,,,,,,,,,,,,,,,,,,,,,,,,,,4.27,001,2023-12-10_16h27.50.007,Gen_Run1_Tone,2023.1.0,59.94736617461624,
,,,,,,,,,1,1,60,img/Agent_AS.png,img/HS.png,img/confidence.png,img/lost.png,0,img/WhiteNoiseLong.wav,,,,,,,,,,0,0,0,0,,,,,,,,,0,0,0,0,0,21,21,11,,,,,,,,,,,,,,,,,,,,,,,,,,,,,,370.02596804103814,,,,,,,,,365.87672358285636,366.8759200000204,367.1429067910649,367.1429067910649,['a'],[0.2957059987820685],1.0,367.45909866597503,368.46011462504975,368.46011462504975,369.4590993330348,369.7260495410301,369.7260495410301,['a'],[0.278768208110705],370.293359125033,370.45952692839785,371.7597857909277,1.5,371.77634904091246,373.27678091591224,366.8759200000204,369.4590993330348,,,,,,,,,,,,,,,,,,,,,,,,,,,,,,4.27,001,2023-12-10_16h27.50.007,Gen_Run1_Tone,2023.1.0,59.94736617461624,
,,,,,,,,,1,1,53,img/Agent_AM.png,img/HW.png,img/confidence.png,img/lost.png,0,img/WhiteNoiseLong.wav,,,,,,,,,,0,0,0,0,,,,,,,,,0,0,0,0,0,22,22,4,,,,,,,,,,,,,,,,,,,,,,,,,,,,,,377.0433755828999,,,,,,,,,373.27678091591224,374.2764132078737,374.54264024994336,374.54264024994336,['a'],[0.255493916105479],0.5,374.8313516250346,375.3436604999006,375.3436604999006,376.3593227909878,376.60932074999437,376.60932074999437,['a'],[0.4086357490159571],377.29315220797434,377.47639926245904,378.77600862504914,1.0,378.79293291596696,379.7932825409807,,,378.79293291596696,,,,,,,,,,,,,,,,,,,,,,,,,,,,,4.27,001,2023-12-10_16h27.50.007,Gen_Run1_Tone,2023.1.0,59.94736617461624,
,,,,,,,,,1,1,68,img/Agent_AW.png,img/HS.png,img/confidence.png,img/lost.png,0,img/WhiteNoiseLong.wav,,,,,,,,,,0,0,0,0,,,,,,,,,0,0,0,0,0,23,23,19,,,,,,,,,,,,,,,,,,,,,,,,,,,,,,383.47598437499255,,,,,,,,,379.7932825409807,380.7922845829744,381.04279958293773,381.04279958293773,['a'],[0.3215510828886181],0.5,381.3923573328648,381.8931805409957,381.8931805409957,382.8930781248491,383.14270745799877,383.14270745799877,['a'],[0.3094343750271946],383.7431845830288,383.9094066785416,385.2090992908925,0.5,385.243238999974,385.7548110829666,,,,,,,,,,,,,,,,,,,,,,,,,,,,,,,,4.27,001,2023-12-10_16h27.50.007,Gen_Run1_Tone,2023.1.0,59.94736617461624,
,,,,,,,,,,,,,,,,,,1,1,28,img/Agent_HM.png,img/HW.png,img/confidence.png,img/lost.png,0,img/WhiteNoiseLong.wav,0,0,0,0,,,,,,,,,,,,,,,,,0,0,0,0,0,0,0,3,,,,,,,,,,,,,,,,,,,,,,391.1593988330569,,,,,,,,,,,,,,,,,,,,,,,,,,,,,,,,,385.7548110829666,386.7594320408534,386.99290495784953,386.99290495784953,['b'],[0.9003707910887897],1.5,387.90944462502375,389.41116616595536,389.41116616595536,390.425785665866,390.6757266658824,390.6757266658824,['b'],[0.45934766600839794],391.42689679097384,391.59265226244463,392.9093345410656,0.5,392.9258453329094,393.4270125408657,,,,,,,,4.27,001,2023-12-10_16h27.50.007,Gen_Run1_Tone,2023.1.0,59.94736617461624,
,,,,,,,,,,,,,,,,,,1,1,33,img/Agent_HS.png,img/LS.png,img/confidence.png,img/lost.png,0,img/WhiteNoiseLong.wav,0,0,0,0,,,,,,,,,,,,,,,,,0,0,0,0,0,1,1,8,,,,,,,,,,,,,,,,,,,,,,397.84230229095556,,,,,,,,,,,,,,,,,,,,,,,,,,,,,,,,,393.4270125408657,394.42596016591415,394.69249149993993,394.69249149993993,['b'],[0.5954417490866035],1.0,395.30923012504354,396.3104417498689,396.3104417498689,397.3093764160294,397.5759307499975,397.5759307499975,['a'],[0.24419037392362952],398.10990620800294,398.27650751245676,399.5928151658736,0.5,399.6094552499708,400.10997658292763,394.42596016591415,,,,,,,4.27,001,2023-12-10_16h27.50.007,Gen_Run1_Tone,2023.1.0,59.94736617461624,
,,,,,,,,,,,,,,,,,,1,1,35,img/Agent_HS.png,img/LW.png,img/confidence.png,img/lost.png,0,img/WhiteNoiseLong.wav,0,0,0,0,,,,,,,,,,,,,,,,,0,0,0,0,0,2,2,10,,,,,,,,,,,,,,,,,,,,,,405.0266716659535,,,,,,,,,,,,,,,,,,,,,,,,,,,,,,,,,400.10997658292763,401.1098308749497,401.3592671658844,401.3592671658844,['b'],[0.47418412403203547],1.0,401.85905037494376,402.86091833305545,402.86091833305545,403.8594404999167,404.1259151250124,404.1259151250124,['b'],[0.8686253749765456],405.29316654102877,405.4593453454087,406.75923879095353,2.0,406.79276579106227,408.7945407910738,401.1098308749497,,,,,,,4.27,001,2023-12-10_16h27.50.007,Gen_Run1_Tone,2023.1.0,59.94736617461624,
,,,,,,,,,,,,,,,,,,1,1,42,img/Agent_HW.png,img/LM.png,img/confidence.png,img/lost.png,0,img/WhiteNoiseLong.wav,0,0,0,0,,,,,,,,,,,,,,,,,0,0,0,0,0,3,3,17,,,,,,,,,,,,,,,,,,,,,,412.62560462486,,,,,,,,,,,,,,,,,,,,,,,,,,,,,,,,,408.7945407910738,409.7928526659962,410.04245033301413,410.04245033301413,['a'],[0.4530399569775909],0.5,410.52624012506567,411.02745537506416,411.02745537506416,412.0261698749382,412.2760907500051,412.2760907500051,['a'],[0.32551099988631904],412.89310649991967,413.05953526243104,414.35914183291607,1.5,414.3916174580809,415.89369124989025,,,,,,,,4.27,001,2023-12-10_16h27.50.007,Gen_Run1_Tone,2023.1.0,59.94736617461624,
,,,,,,,,,,,,,,,,,,1,1,26,img/Agent_HM.png,img/LM.png,img/confidence.png,img/lost.png,0,img/WhiteNoiseLong.wav,0,0,0,0,,,,,,,,,,,,,,,,,0,0,0,0,0,4,4,1,,,,,,,,,,,,,,,,,,,,,,420.51060329098254,,,,,,,,,,,,,,,,,,,,,,,,,,,,,,,,,415.89369124989025,416.90941754099913,417.15913945785724,417.15913945785724,['b'],[0.3013354989234358],1.5,417.49298212490976,418.9928240829613,418.9928240829613,419.9922946249135,420.25909387506545,420.25909387506545,['a'],[0.231293291086331],420.7600238749292,420.9427958035609,422.24271754105575,1.5,422.25949537497945,423.76019724993967,,419.9922946249135,422.25949537497945,,,,,4.27,001,2023-12-10_16h27.50.007,Gen_Run1_Tone,2023.1.0,59.94736617461624,
,,,,,,,,,,,,,,,,,,1,1,32,img/Agent_HM.png,img/AW.png,img/confidence.png,img/won.png,1,img/Silent.wav,0,0,0,0,,,,,,,,,,,,,,,,,0,0,0,0,0,5,5,7,,,,,,,,,,,,,,,,,,,,,,427.97601079102606,,,,,,,,,,,,,,,,,,,,,,,,,,,,,,,,,423.76019724993967,424.75914308289066,425.0258015829604,425.0258015829604,['a'],[0.29561183298937976],0.5,425.3426919160411,425.84389045787975,425.84389045787975,426.8428702079691,427.109098915942,427.109098915942,['b'],[0.8381537911482155],428.2536172908731,428.4094119705493,429.70954800001346,1.0,429.7260061248671,430.7266761250794,,,,,,,,4.27,001,2023-12-10_16h27.50.007,Gen_Run1_Tone,2023.1.0,59.94736617461624,
,,,,,,,,,,,,,,,,,,1,1,41,img/Agent_HW.png,img/LS.png,img/confidence.png,img/lost.png,0,img/WhiteNoiseLong.wav,0,0,0,0,,,,,,,,,,,,,,,,,0,0,0,0,0,6,6,16,,,,,,,,,,,,,,,,,,,,,,434.8755129999481,,,,,,,,,,,,,,,,,,,,,,,,,,,,,,,,,430.7266761250794,431.7263088328764,431.99229258298874,431.99229258298874,['a'],[0.29547362495213747],1.0,432.30912545789033,433.3097394159995,433.3097394159995,434.3091936658602,434.55864612502046,434.55864612502046,['a'],[0.2854318330064416],435.1439479580149,435.30960134535565,436.6091905408539,1.0,436.6426343328785,437.64334662491456,431.7263088328764,,,,,,,4.27,001,2023-12-10_16h27.50.007,Gen_Run1_Tone,2023.1.0,59.94736617461624,
,,,,,,,,,,,,,,,,,,1,1,45,img/Agent_HW.png,img/AS.png,img/confidence.png,img/lost.png,0,img/WhiteNoiseLong.wav,0,0,0,0,,,,,,,,,,,,,,,,,0,0,0,0,0,7,7,20,,,,,,,,,,,,,,,,,,,,,,442.0923369580414,,,,,,,,,,,,,,,,,,,,,,,,,,,,,,,,,437.64334662491456,438.64235945791006,438.90939070796594,438.90939070796594,['a'],[0.18220387515611947],1.5,439.1093762500677,440.61003075004555,440.61003075004555,441.60935795796104,441.8758914580103,441.8758914580103,['b'],[0.1946289569605142],442.3433041658718,442.52620284541047,443.8257286660373,1.5,443.8429074580781,445.3433678748552,,441.60935795796104,443.8429074580781,,,,,4.27,001,2023-12-10_16h27.50.007,Gen_Run1_Tone,2023.1.0,59.94736617461624,
,,,,,,,,,,,,,,,,,,1,1,36,img/Agent_HS.png,img/HM.png,img/confidence.png,img/won.png,1,img/Silent.wav,0,0,0,0,,,,,,,,,,,,,,,,,0,0,0,0,0,8,8,11,,,,,,,,,,,,,,,,,,,,,,449.19328795792535,,,,,,,,,,,,,,,,,,,,,,,,,,,,,,,,,445.3433678748552,446.35926220798865,446.6089101249818,446.6089101249818,['b'],[0.5823842491954565],0.5,447.20872237486765,447.70979174994864,447.70979174994864,448.70929162506945,448.95929820789024,448.95929820789024,['b'],[0.21120149898342788],449.4718404999003,449.62521030337086,450.92600437486544,1.5,450.9591435410548,452.46153820795007,,448.70929162506945,,,,,,4.27,001,2023-12-10_16h27.50.007,Gen_Run1_Tone,2023.1.0,59.94736617461624,
,,,,,,,,,,,,,,,,,,1,1,46,img/Agent_HW.png,img/AW.png,img/confidence.png,img/won.png,1,img/Silent.wav,0,0,0,0,,,,,,,,,,,,,,,,,0,0,0,0,0,9,9,21,,,,,,,,,,,,,,,,,,,,,,456.50901708286256,,,,,,,,,,,,,,,,,,,,,,,,,,,,,,,,,452.46153820795007,453.47608620789833,453.7259128750302,453.7259128750302,['a'],[0.3316259989514947],0.5,454.07621170789935,454.5763714578934,454.5763714578934,455.5759972499218,455.8421149160713,455.8421149160713,['b'],[0.6372144990600646],456.78244537487626,456.9426634705393,458.2426632079296,1.5,458.27603087504394,459.77603262499906,,455.5759972499218,,,,,,4.27,001,2023-12-10_16h27.50.007,Gen_Run1_Tone,2023.1.0,59.94736617461624,
,,,,,,,,,,,,,,,,,,1,1,34,img/Agent_HS.png,img/LM.png,img/confidence.png,img/lost.png,0,img/WhiteNoiseLong.wav,0,0,0,0,,,,,,,,,,,,,,,,,0,0,0,0,0,10,10,9,,,,,,,,,,,,,,,,,,,,,,463.64270233293064,,,,,,,,,,,,,,,,,,,,,,,,,,,,,,,,,459.77603262499906,460.7761952909641,461.02594295796007,461.02594295796007,['b'],[0.0870947907678783],1.0,461.14247087505646,462.144413291011,462.144413291011,463.1592406660784,463.409205915872,463.409205915872,['a'],[0.21021433197893202],463.9102569578681,464.0928486783756,465.3924833328929,1.0,465.40939629101194,466.4102476660628,,,,,,,,4.27,001,2023-12-10_16h27.50.007,Gen_Run1_Tone,2023.1.0,59.94736617461624,
,,,,,,,,,,,,,,,,,,1,1,48,img/Agent_HW.png,img/AM.png,img/confidence.png,img/won.png,1,img/Silent.wav,0,0,0,0,,,,,,,,,,,,,,,,,0,0,0,0,0,11,11,23,,,,,,,,,,,,,,,,,,,,,,470.92437104089186,,,,,,,,,,,,,,,,,,,,,,,,,,,,,,,,,466.4102476660628,467.42597312503494,467.67578795785084,467.67578795785084,['b'],[0.6523817910347134],1.0,468.359598207986,469.36014133295976,469.36014133295976,470.35936666605994,470.60917566600256,470.60917566600256,['b'],[0.2873937499243766],471.1997769160662,471.3591301783687,472.65864154091105,1.0,472.6924771659542,473.6924869159702,,,,,,,,4.27,001,2023-12-10_16h27.50.007,Gen_Run1_Tone,2023.1.0,59.94736617461624,
,,,,,,,,,,,,,,,,,,1,1,39,img/Agent_HS.png,img/AM.png,img/confidence.png,img/won.png,1,img/Silent.wav,0,0,0,0,,,,,,,,,,,,,,,,,0,0,0,0,0,12,12,14,,,,,,,,,,,,,,,,,,,,,,477.50921262498014,,,,,,,,,,,,,,,,,,,,,,,,,,,,,,,,,473.6924869159702,474.69232970802113,474.9421900410671,474.9421900410671,['b'],[0.15324104111641645],1.0,475.1264077499509,476.1260817500297,476.1260817500297,477.1258755829185,477.375899665989,477.375899665989,['c'],[0.11038258206099272],477.7825662079267,477.9424933453789,479.2426436250098,0.5,479.27608004095964,479.7928161660675,,,,,,,,4.27,001,2023-12-10_16h27.50.007,Gen_Run1_Tone,2023.1.0,59.94736617461624,
,,,,,,,,,,,,,,,,,,1,1,38,img/Agent_HS.png,img/AS.png,img/confidence.png,img/won.png,1,img/Silent.wav,0,0,0,0,,,,,,,,,,,,,,,,,0,0,0,0,0,13,13,13,,,,,,,,,,,,,,,,,,,,,,484.0099195409566,,,,,,,,,,,,,,,,,,,,,,,,,,,,,,,,,479.7928161660675,480.7927259579301,481.0592191249598,481.0592191249598,['b'],[0.3064754579681903],1.0,481.3924289578572,482.3930896250531,482.3930896250531,483.3928451659158,483.64226437499747,483.64226437499747,['c'],[0.3491682910826057],484.28200124995783,484.4424685954815,485.74203475005925,1.0,485.77667545806617,486.77624308294617,480.7927259579301,,,,,,,4.27,001,2023-12-10_16h27.50.007,Gen_Run1_Tone,2023.1.0,59.94736617461624,
,,,,,,,,,,,,,,,,,,1,1,37,img/Agent_HS.png,img/HW.png,img/confidence.png,img/won.png,1,img/Silent.wav,0,0,0,0,,,,,,,,,,,,,,,,,0,0,0,0,0,14,14,12,,,,,,,,,,,,,,,,,,,,,,490.9589269158896,,,,,,,,,,,,,,,,,,,,,,,,,,,,,,,,,486.77624308294617,487.7925764999818,488.0423187080305,488.0423187080305,['c'],[0.16828650003299117],1.0,488.24366799998097,489.26027287496254,489.26027287496254,490.27573850005865,490.5258235828951,490.5258235828951,['c'],[0.41350641613826156],491.2329338749405,491.3925285535166,492.69257620791905,1.0,492.7257842910476,493.7273770829197,,,,,,,,4.27,001,2023-12-10_16h27.50.007,Gen_Run1_Tone,2023.1.0,59.94736617461624,
,,,,,,,,,,,,,,,,,,1,1,31,img/Agent_HM.png,img/AM.png,img/confidence.png,img/won.png,1,img/Silent.wav,0,0,0,0,,,,,,,,,,,,,,,,,0,0,0,0,0,15,15,6,,,,,,,,,,,,,,,,,,,,,,497.3258559159003,,,,,,,,,,,,,,,,,,,,,,,,,,,,,,,,,493.7273770829197,494.74259379087016,494.99249529093504,494.99249529093504,['b'],[0.22000758303329349],0.5,495.2424600410741,495.7444230830297,495.7444230830297,496.74252062500454,496.99204120785,496.99204120785,['b'],[0.3038653328549117],497.5990369580686,497.7590511783725,499.05904933298007,2.0,499.0922627078835,501.09347808291204,,,,,,,,4.27,001,2023-12-10_16h27.50.007,Gen_Run1_Tone,2023.1.0,59.94736617461624,
,,,,,,,,,,,,,,,,,,1,1,30,img/Agent_HM.png,img/AS.png,img/confidence.png,img/won.png,1,img/Silent.wav,0,0,0,0,,,,,,,,,,,,,,,,,0,0,0,0,0,16,16,5,,,,,,,,,,,,,,,,,,,,,,505.72577399993315,,,,,,,,,,,,,,,,,,,,,,,,,,,,,,,,,501.09347808291204,502.0921573329251,502.3427852499299,502.3427852499299,['b'],[0.12717012385837734],1.5,502.49209866602905,503.9930847499054,503.9930847499054,505.00919020804577,505.2589199580252,505.2589199580252,['b'],[0.4361030829604715],505.983102374943,506.1593723455677,507.45913783297874,0.5,507.4754345000256,507.977289540926,,,,,,,,4.27,001,2023-12-10_16h27.50.007,Gen_Run1_Tone,2023.1.0,59.94736617461624,
,,,,,,,,,,,,,,,,,,1,1,47,img/Agent_HW.png,img/LW.png,img/confidence.png,img/won.png,1,img/Silent.wav,0,0,0,0,,,,,,,,,,,,,,,,,0,0,0,0,0,17,17,22,,,,,,,,,,,,,,,,,,,,,,511.7597782078665,,,,,,,,,,,,,,,,,,,,,,,,,,,,,,,,,507.977289540926,508.975738249952,509.22577041597106,509.22577041597106,['b'],[0.39946324890479445],0.5,509.64254470798187,510.14321841602214,510.14321841602214,511.142802832881,511.40907920803875,511.40907920803875,['a'],[0.32773604104295373],512.0325603750534,512.1924944285071,513.4920670830179,2.0,513.5257321249228,515.5265535409562,,,,,,,,4.27,001,2023-12-10_16h27.50.007,Gen_Run1_Tone,2023.1.0,59.94736617461624,
,,,,,,,,,,,,,,,,,,1,1,29,img/Agent_HM.png,img/LW.png,img/confidence.png,img/won.png,1,img/Silent.wav,0,0,0,0,,,,,,,,,,,,,,,,,0,0,0,0,0,18,18,4,,,,,,,,,,,,,,,,,,,,,,520.5421554578934,,,,,,,,,,,,,,,,,,,,,,,,,,,,,,,,,515.5265535409562,516.525327415904,516.7757198328618,516.7757198328618,['b'],[0.20873950002714992],2.0,517.0092239999212,519.0097735829186,519.0097735829186,520.0090067500714,520.2756977500394,520.2756977500394,['a'],[0.2434520828537643],520.8161096249241,520.9760244284058,522.2758856250439,2.0,522.3089228330646,524.3097439999692,516.525327415904,520.0090067500714,,,,,,4.27,001,2023-12-10_16h27.50.007,Gen_Run1_Tone,2023.1.0,59.94736617461624,
,,,,,,,,,,,,,,,,,,1,1,43,img/Agent_HW.png,img/HS.png,img/confidence.png,img/lost.png,0,img/WhiteNoiseLong.wav,0,0,0,0,,,,,,,,,,,,,,,,,0,0,0,0,0,19,19,18,,,,,,,,,,,,,,,,,,,,,,528.6414913330227,,,,,,,,,,,,,,,,,,,,,,,,,,,,,,,,,524.3097439999692,525.3092263329308,525.5588537498843,525.5588537498843,['b'],[0.21166083286516368],1.0,525.7924682078883,526.7929519999307,526.7929519999307,527.7924152910709,528.0590189159848,528.0590189159848,['a'],[0.5555597909260541],528.9107681659516,529.0756172624184,530.375486999983,0.5,530.4093837910332,530.9264225410298,,527.7924152910709,,,,,,4.27,001,2023-12-10_16h27.50.007,Gen_Run1_Tone,2023.1.0,59.94736617461624,
,,,,,,,,,,,,,,,,,,1,1,44,img/Agent_HW.png,img/HM.png,img/confidence.png,img/lost.png,0,img/WhiteNoiseLong.wav,0,0,0,0,,,,,,,,,,,,,,,,,0,0,0,0,0,20,20,19,,,,,,,,,,,,,,,,,,,,,,534.442683625035,,,,,,,,,,,,,,,,,,,,,,,,,,,,,,,,,530.9264225410298,531.9260119160172,532.19248654088,532.19248654088,['b'],[0.23073441605083644],0.5,532.4431153328624,532.9434256248642,532.9434256248642,533.942314249929,534.208931250032,534.208931250032,['b'],[0.20959054096601903],534.6930191658903,534.8751328455052,536.1755432910286,0.5,536.1922867500689,536.692920290865,,533.942314249929,536.1922867500689,,,,,4.27,001,2023-12-10_16h27.50.007,Gen_Run1_Tone,2023.1.0,59.94736617461624,
,,,,,,,,,,,,,,,,,,1,1,40,img/Agent_HS.png,img/AW.png,img/confidence.png,img/won.png,1,img/Silent.wav,0,0,0,0,,,,,,,,,,,,,,,,,0,0,0,0,0,21,21,15,,,,,,,,,,,,,,,,,,,,,,541.5919699999504,,,,,,,,,,,,,,,,,,,,,,,,,,,,,,,,,536.692920290865,537.6924747908488,537.9588810829446,537.9588810829446,['b'],[0.19384312396869063],2.0,538.1763219998684,540.1768797498662,540.1768797498662,541.1758907909971,541.4257652908564,541.4257652908564,['c'],[0.13488595699891448],541.865781832952,542.0423169704387,543.3425482080784,1.0,543.3585573749151,544.359630000079,537.6924747908488,,,,,,,4.27,001,2023-12-10_16h27.50.007,Gen_Run1_Tone,2023.1.0,59.94736617461624,
,,,,,,,,,,,,,,,,,,1,1,27,img/Agent_HM.png,img/HS.png,img/confidence.png,img/lost.png,0,img/WhiteNoiseLong.wav,0,0,0,0,,,,,,,,,,,,,,,,,0,0,0,0,0,22,22,2,,,,,,,,,,,,,,,,,,,,,,547.5753254999872,,,,,,,,,,,,,,,,,,,,,,,,,,,,,,,,,544.359630000079,545.3588004999328,545.6089537078515,545.6089537078515,['b'],[0.12685445696115494],0.5,545.7586471249815,546.2602642909624,546.2602642909624,547.2758166249841,547.5253729159012,547.5253729159012,['b'],[0.019935457035899162],547.8429409160744,548.0096338035306,549.3090899998788,1.5,549.3253737499472,550.826028124895,,,,,,,,4.27,001,2023-12-10_16h27.50.007,Gen_Run1_Tone,2023.1.0,59.94736617461624,
,,,,,,,,,,,,,,,,,,1,1,25,img/Agent_HM.png,img/LS.png,img/confidence.png,img/lost.png,0,img/WhiteNoiseLong.wav,0,0,0,0,,,,,,,,,,,,,,,,,0,0,0,0,0,23,23,0,,,,,,,,,,,,,,,,,,,,,,554.8764307079837,,,,,,,,,,,,,,,,,,,,,,,,,,,,,,,,,550.826028124895,551.8254358749837,552.0921439579688,552.0921439579688,['b'],[0.16950608300976455],1.0,552.291994290892,553.2929973748978,553.2929973748978,554.2922418329399,554.5590028329752,554.5590028329752,['a'],[0.2929247079882771],555.1428643749095,555.3091548874742,556.6093554999679,1.0,556.6259960408788,557.6260100000072,,554.2922418329399,,,,,,4.27,001,2023-12-10_16h27.50.007,Gen_Run1_Tone,2023.1.0,59.94736617461624,
,,,,,,,,,,,,,,,,,,,,,,,,,,,0,0,0,0,,,,,,,,,,,,,,,,,,,,,,,,,,,,,,,,,,,,,,,,,,,,,,,,,,,,,,,,,,,,,,,,,,,,,,,,,,,,,,,,,,,,,,,,,,,,,,,,,,,,,,,,,,,4.27,001,2023-12-10_16h27.50.007,Gen_Run1_Tone,2023.1.0,59.94736617461624,
,,,,,,,,,,,,,,,,,,,,,,,,,,,,,,,,,,,,,,,,,,,,,,,,,,,,,,,,,,,,,,,,,,,,,,,,,,,,,,,,,,,,,,,,,,,,,,,,,,,,,,,,,,,,,,,,,,,,,,,,,,,,,,,,,,,,,557.6260100000072,557.6260100000072,a,7.617605166044086,4.27,001,2023-12-10_16h27.50.007,Gen_Run1_Tone,2023.1.0,59.94736617461624,
