"rt","responses","trial_type","trial_index","time_elapsed","internal_node_id","stimulus","key_press","view_history","response"
"6274.199999999255","{""Q0"":""WA_025""}","survey-text","0","6290","0.0-0.0-0.0","","","",""
"8708.799999998882","","html-keyboard-response","1","15001","0.0-1.0","<p style=""font-size:30px;"">Welcome to the experiment!</p><p style=""font-size:30px;""> You will read instructions for the game</p><p style=""font-size:30px;""> while we take a scan.</p><br><p style=""font-size:30px;"">Press ""3"" with your middle finger to read the instructions.</p></br>","3","",""
"154325.5","","instructions","2","169329","0.0-2.0","","","[{""page_index"":0,""viewing_time"":4373.10000000149},{""page_index"":1,""viewing_time"":58754.29999999888},{""page_index"":2,""viewing_time"":5530},{""page_index"":3,""viewing_time"":7106.9000000003725},{""page_index"":4,""viewing_time"":7443},{""page_index"":5,""viewing_time"":6089.0999999996275},{""page_index"":6,""viewing_time"":4902.9000000003725},{""page_index"":7,""viewing_time"":4244.9000000003725},{""page_index"":8,""viewing_time"":6800.0999999996275},{""page_index"":9,""viewing_time"":2496.9000000003725},{""page_index"":10,""viewing_time"":3526.9000000003725},{""page_index"":11,""viewing_time"":3704.0999999996275},{""page_index"":12,""viewing_time"":5312.9000000003725},{""page_index"":13,""viewing_time"":5508.199999999255},{""page_index"":14,""viewing_time"":3047.9000000003725},{""page_index"":15,""viewing_time"":4161.9000000003725},{""page_index"":16,""viewing_time"":3945.0999999996275},{""page_index"":17,""viewing_time"":2479.9000000003725},{""page_index"":18,""viewing_time"":3891.0999999996275},{""page_index"":19,""viewing_time"":3952},{""page_index"":20,""viewing_time"":5038.9000000003725},{""page_index"":21,""viewing_time"":2015.0999999996275}]",""
"3172.5","","image-keyboard-response","3","172506","0.0-3.0-0.0","img/stick.png","","","2"
"null","","html-keyboard-response","4","174008","0.0-3.0-1.0","<p style=""font-size: 60px; font-family: monospace;"">+</p>","null","",""
"2706.9000000003725","","image-keyboard-response","5","176717","0.0-3.0-2.0","img/grizzly.png","","","2"
"null","","html-keyboard-response","6","178218","0.0-3.0-3.0","<p style=""font-size: 60px; font-family: monospace;"">+</p>","null","",""
"null","","image-keyboard-response","7","179220","0.0-3.0-4.0","img/lost.png","","","null"
"null","","html-keyboard-response","8","180721","0.0-3.0-5.0","<p style=""font-size: 150px; font-family: monospace;"">+</p>","null","",""
"1877.3999999985099","","image-keyboard-response","9","182600","0.0-3.0-0.1","img/gun.png","","","1"
"null","","html-keyboard-response","10","184101","0.0-3.0-1.1","<p style=""font-size: 60px; font-family: monospace;"">+</p>","null","",""
"3247.699999999255","","image-keyboard-response","11","187351","0.0-3.0-2.1","img/goose.png","","","1"
"null","","html-keyboard-response","12","188852","0.0-3.0-3.1","<p style=""font-size: 60px; font-family: monospace;"">+</p>","null","",""
"null","","image-keyboard-response","13","189854","0.0-3.0-4.1","img/won.png","","","null"
"null","","html-keyboard-response","14","191355","0.0-3.0-5.1","<p style=""font-size: 150px; font-family: monospace;"">+</p>","null","",""
"3820.0999999996275","","image-keyboard-response","15","195177","0.0-3.0-0.2","img/rock.png","","","2"
"null","","html-keyboard-response","16","196678","0.0-3.0-1.2","<p style=""font-size: 60px; font-family: monospace;"">+</p>","null","",""
"1638.199999999255","","image-keyboard-response","17","198318","0.0-3.0-2.2","img/cat.png","","","1"
"null","","html-keyboard-response","18","199819","0.0-3.0-3.2","<p style=""font-size: 60px; font-family: monospace;"">+</p>","null","",""
"null","","image-keyboard-response","19","200821","0.0-3.0-4.2","img/won.png","","","null"
"null","","html-keyboard-response","20","202322","0.0-3.0-5.2","<p style=""font-size: 150px; font-family: monospace;"">+</p>","null","",""
"2604.5","","image-keyboard-response","21","204928","0.0-3.0-0.3","img/fist.png","","","2"
"null","","html-keyboard-response","22","206428","0.0-3.0-1.3","<p style=""font-size: 60px; font-family: monospace;"">+</p>","null","",""
"1452.0999999996275","","image-keyboard-response","23","207883","0.0-3.0-2.3","img/grizzly.png","","","2"
"null","","html-keyboard-response","24","209384","0.0-3.0-3.3","<p style=""font-size: 60px; font-family: monospace;"">+</p>","null","",""
"null","","image-keyboard-response","25","210386","0.0-3.0-4.3","img/lost.png","","","null"
"null","","html-keyboard-response","26","211887","0.0-3.0-5.3","<p style=""font-size: 150px; font-family: monospace;"">+</p>","null","",""
"2146.5999999996275","","image-keyboard-response","27","214035","0.0-3.0-0.4","img/cat.png","","","1"
"null","","html-keyboard-response","28","215536","0.0-3.0-1.4","<p style=""font-size: 60px; font-family: monospace;"">+</p>","null","",""
"1636.5999999996275","","image-keyboard-response","29","217175","0.0-3.0-2.4","img/fist.png","","","1"
"null","","html-keyboard-response","30","218676","0.0-3.0-3.4","<p style=""font-size: 60px; font-family: monospace;"">+</p>","null","",""
"null","","image-keyboard-response","31","219678","0.0-3.0-4.4","img/lost.png","","","null"
"null","","html-keyboard-response","32","221179","0.0-3.0-5.4","<p style=""font-size: 150px; font-family: monospace;"">+</p>","null","",""
"2759.10000000149","","image-keyboard-response","33","223940","0.0-3.0-0.5","img/bow.png","","","1"
"null","","html-keyboard-response","34","225440","0.0-3.0-1.5","<p style=""font-size: 60px; font-family: monospace;"">+</p>","null","",""
"1142.0999999996275","","image-keyboard-response","35","226585","0.0-3.0-2.5","img/crow.png","","","1"
"null","","html-keyboard-response","36","228086","0.0-3.0-3.5","<p style=""font-size: 60px; font-family: monospace;"">+</p>","null","",""
"null","","image-keyboard-response","37","229088","0.0-3.0-4.5","img/won.png","","","null"
"null","","html-keyboard-response","38","230589","0.0-3.0-5.5","<p style=""font-size: 150px; font-family: monospace;"">+</p>","null","",""
"904.4000000003725","","image-keyboard-response","39","231494","0.0-3.0-0.6","img/crow.png","","","1"
"null","","html-keyboard-response","40","232996","0.0-3.0-1.6","<p style=""font-size: 60px; font-family: monospace;"">+</p>","null","",""
"1329.6000000014901","","image-keyboard-response","41","234326","0.0-3.0-2.6","img/gun.png","","","1"
"null","","html-keyboard-response","42","235828","0.0-3.0-3.6","<p style=""font-size: 60px; font-family: monospace;"">+</p>","null","",""
"null","","image-keyboard-response","43","236830","0.0-3.0-4.6","img/won.png","","","null"
"null","","html-keyboard-response","44","238331","0.0-3.0-5.6","<p style=""font-size: 150px; font-family: monospace;"">+</p>","null","",""
"1053.5999999996275","","image-keyboard-response","45","239386","0.0-3.0-0.7","img/lion.png","","","2"
"null","","html-keyboard-response","46","240886","0.0-3.0-1.7","<p style=""font-size: 60px; font-family: monospace;"">+</p>","null","",""
"1402.3999999985099","","image-keyboard-response","47","242289","0.0-3.0-2.7","img/grenade.png","","","1"
"null","","html-keyboard-response","48","243790","0.0-3.0-3.7","<p style=""font-size: 60px; font-family: monospace;"">+</p>","null","",""
"null","","image-keyboard-response","49","244792","0.0-3.0-4.7","img/won.png","","","null"
"null","","html-keyboard-response","50","246293","0.0-3.0-5.7","<p style=""font-size: 150px; font-family: monospace;"">+</p>","null","",""
"5861.300000000745","","html-keyboard-response","51","252156","0.0-4.0","<div><p style=""font-size:30px;"">You finished the instructions.</p><p style=""font-size:30px;"">The scan make take a few minutes longer.  </p><p style=""font-size:30px;"">Please relax and hold still until it is finished. </p><p style=""font-size:30px;"">We will tell you when the main game is ready to begin.</p><br><p style=""font-size:30px;""><b>Please press 3 to end.</b> </p></br></div>","3","",""
