"rt","responses","trial_type","trial_index","time_elapsed","internal_node_id","stimulus","key_press","view_history","response"
"6495.5","{""Q0"":""WA_008""}","survey-text","0","6509","0.0-0.0-0.0","","","",""
"2285.100000023842","","html-keyboard-response","1","8796","0.0-1.0","<p style=""font-size:30px;"">Welcome to the experiment!</p><p style=""font-size:30px;""> You will read instructions for the game</p><p style=""font-size:30px;""> while we take a scan.</p><br><p style=""font-size:30px;"">Press ""3"" with your middle finger to read the instructions.</p></br>","3","",""
"94784.5","","instructions","2","103582","0.0-2.0","","","[{""page_index"":0,""viewing_time"":2128.5},{""page_index"":1,""viewing_time"":3058.6999999284744},{""page_index"":2,""viewing_time"":5933.899999976158},{""page_index"":3,""viewing_time"":6953.100000023842},{""page_index"":4,""viewing_time"":7083.899999976158},{""page_index"":5,""viewing_time"":6371.800000071526},{""page_index"":6,""viewing_time"":3495},{""page_index"":7,""viewing_time"":4237.899999976158},{""page_index"":8,""viewing_time"":4298},{""page_index"":9,""viewing_time"":2410.100000023842},{""page_index"":10,""viewing_time"":4356.899999976158},{""page_index"":11,""viewing_time"":2631.899999976158},{""page_index"":12,""viewing_time"":7258.800000071526},{""page_index"":13,""viewing_time"":4342.099999904633},{""page_index"":14,""viewing_time"":3204.3000000715256},{""page_index"":15,""viewing_time"":5284.600000023842},{""page_index"":16,""viewing_time"":3599},{""page_index"":17,""viewing_time"":6049.899999976158},{""page_index"":18,""viewing_time"":3723.899999976158},{""page_index"":19,""viewing_time"":3726.100000023842},{""page_index"":20,""viewing_time"":2935.100000023842},{""page_index"":21,""viewing_time"":1700.6999999284744}]",""
"3307.5","","image-keyboard-response","3","106907","0.0-3.0-0.0","img/rock.png","","","2"
"null","","html-keyboard-response","4","108408","0.0-3.0-1.0","<p style=""font-size: 60px; font-family: monospace;"">+</p>","null","",""
"2560.399999976158","","image-keyboard-response","5","110970","0.0-3.0-2.0","img/cat.png","","","1"
"null","","html-keyboard-response","6","112471","0.0-3.0-3.0","<p style=""font-size: 60px; font-family: monospace;"">+</p>","null","",""
"null","","image-keyboard-response","7","113473","0.0-3.0-4.0","img/won.png","","","null"
"null","","html-keyboard-response","8","114974","0.0-3.0-5.0","<p style=""font-size: 150px; font-family: monospace;"">+</p>","null","",""
"1395.2999999523163","","image-keyboard-response","9","116371","0.0-3.0-0.1","img/cat.png","","","1"
"null","","html-keyboard-response","10","117872","0.0-3.0-1.1","<p style=""font-size: 60px; font-family: monospace;"">+</p>","null","",""
"1450.1000000238419","","image-keyboard-response","11","119324","0.0-3.0-2.1","img/fist.png","","","1"
"null","","html-keyboard-response","12","120825","0.0-3.0-3.1","<p style=""font-size: 60px; font-family: monospace;"">+</p>","null","",""
"null","","image-keyboard-response","13","121829","0.0-3.0-4.1","img/lost.png","","","null"
"null","","html-keyboard-response","14","123330","0.0-3.0-5.1","<p style=""font-size: 150px; font-family: monospace;"">+</p>","null","",""
"4355.200000047684","","image-keyboard-response","15","127686","0.0-3.0-0.2","img/fist.png","","","1"
"null","","html-keyboard-response","16","129187","0.0-3.0-1.2","<p style=""font-size: 60px; font-family: monospace;"">+</p>","null","",""
"1217.3999999761581","","image-keyboard-response","17","130406","0.0-3.0-2.2","img/grizzly.png","","","2"
"null","","html-keyboard-response","18","131907","0.0-3.0-3.2","<p style=""font-size: 60px; font-family: monospace;"">+</p>","null","",""
"null","","image-keyboard-response","19","132909","0.0-3.0-4.2","img/lost.png","","","null"
"null","","html-keyboard-response","20","134410","0.0-3.0-5.2","<p style=""font-size: 150px; font-family: monospace;"">+</p>","null","",""
"3202.7000000476837","","image-keyboard-response","21","137614","0.0-3.0-0.3","img/crow.png","","","1"
"null","","html-keyboard-response","22","139115","0.0-3.0-1.3","<p style=""font-size: 60px; font-family: monospace;"">+</p>","null","",""
"2452.100000023842","","image-keyboard-response","23","141569","0.0-3.0-2.3","img/gun.png","","","1"
"null","","html-keyboard-response","24","143071","0.0-3.0-3.3","<p style=""font-size: 60px; font-family: monospace;"">+</p>","null","",""
"null","","image-keyboard-response","25","144073","0.0-3.0-4.3","img/won.png","","","null"
"null","","html-keyboard-response","26","145574","0.0-3.0-5.3","<p style=""font-size: 150px; font-family: monospace;"">+</p>","null","",""
"1791.3999999761581","","image-keyboard-response","27","147366","0.0-3.0-0.4","img/lion.png","","","2"
"null","","html-keyboard-response","28","148867","0.0-3.0-1.4","<p style=""font-size: 60px; font-family: monospace;"">+</p>","null","",""
"3079.399999976158","","image-keyboard-response","29","151948","0.0-3.0-2.4","img/grenade.png","","","1"
"null","","html-keyboard-response","30","153449","0.0-3.0-3.4","<p style=""font-size: 60px; font-family: monospace;"">+</p>","null","",""
"null","","image-keyboard-response","31","154451","0.0-3.0-4.4","img/won.png","","","null"
"null","","html-keyboard-response","32","155952","0.0-3.0-5.4","<p style=""font-size: 150px; font-family: monospace;"">+</p>","null","",""
"4306.600000023842","","image-keyboard-response","33","160261","0.0-3.0-0.5","img/stick.png","","","2"
"null","","html-keyboard-response","34","161762","0.0-3.0-1.5","<p style=""font-size: 60px; font-family: monospace;"">+</p>","null","",""
"1045.5","","image-keyboard-response","35","162810","0.0-3.0-2.5","img/grizzly.png","","","2"
"null","","html-keyboard-response","36","164311","0.0-3.0-3.5","<p style=""font-size: 60px; font-family: monospace;"">+</p>","null","",""
"null","","image-keyboard-response","37","165313","0.0-3.0-4.5","img/lost.png","","","null"
"null","","html-keyboard-response","38","166814","0.0-3.0-5.5","<p style=""font-size: 150px; font-family: monospace;"">+</p>","null","",""
"2930","","image-keyboard-response","39","169745","0.0-3.0-0.6","img/gun.png","","","1"
"null","","html-keyboard-response","40","171246","0.0-3.0-1.6","<p style=""font-size: 60px; font-family: monospace;"">+</p>","null","",""
"2846.1999999284744","","image-keyboard-response","41","174094","0.0-3.0-2.6","img/goose.png","","","1"
"null","","html-keyboard-response","42","175595","0.0-3.0-3.6","<p style=""font-size: 60px; font-family: monospace;"">+</p>","null","",""
"null","","image-keyboard-response","43","176597","0.0-3.0-4.6","img/won.png","","","null"
"null","","html-keyboard-response","44","178098","0.0-3.0-5.6","<p style=""font-size: 150px; font-family: monospace;"">+</p>","null","",""
"2293.5","","image-keyboard-response","45","180394","0.0-3.0-0.7","img/bow.png","","","1"
"null","","html-keyboard-response","46","181895","0.0-3.0-1.7","<p style=""font-size: 60px; font-family: monospace;"">+</p>","null","",""
"1068.2000000476837","","image-keyboard-response","47","182965","0.0-3.0-2.7","img/crow.png","","","1"
"null","","html-keyboard-response","48","184466","0.0-3.0-3.7","<p style=""font-size: 60px; font-family: monospace;"">+</p>","null","",""
"null","","image-keyboard-response","49","185467","0.0-3.0-4.7","img/won.png","","","null"
"null","","html-keyboard-response","50","186968","0.0-3.0-5.7","<p style=""font-size: 150px; font-family: monospace;"">+</p>","null","",""
"4656.200000047684","","html-keyboard-response","51","191625","0.0-4.0","<div><p style=""font-size:30px;"">You finished the instructions.</p><p style=""font-size:30px;"">The scan make take a few minutes longer.  </p><p style=""font-size:30px;"">Please relax and hold still until it is finished. </p><p style=""font-size:30px;"">We will tell you when the main game is ready to begin.</p><br><p style=""font-size:30px;""><b>Please press 3 to end.</b> </p></br></div>","3","",""
