"rt","responses","trial_type","trial_index","time_elapsed","internal_node_id","stimulus","key_press","view_history","response"
"4890","{""Q0"":""WA_018""}","survey-text","0","4904","0.0-0.0-0.0","","","",""
"20089.400000095367","","html-keyboard-response","1","24996","0.0-1.0","<p style=""font-size:30px;"">Welcome to the experiment!</p><p style=""font-size:30px;""> You will read instructions for the game</p><p style=""font-size:30px;""> while we take a scan.</p><br><p style=""font-size:30px;"">Press ""3"" with your middle finger to read the instructions.</p></br>","3","",""
"120532.19999980927","","instructions","2","145531","0.0-2.0","","","[{""page_index"":0,""viewing_time"":8794.199999809265},{""page_index"":1,""viewing_time"":3316.7000002861023},{""page_index"":2,""viewing_time"":4241.099999904633},{""page_index"":3,""viewing_time"":5623.900000095367},{""page_index"":4,""viewing_time"":7271.900000095367},{""page_index"":5,""viewing_time"":5769.89999961853},{""page_index"":6,""viewing_time"":13342},{""page_index"":7,""viewing_time"":8507.900000095367},{""page_index"":8,""viewing_time"":7294},{""page_index"":9,""viewing_time"":3005.9000000953674},{""page_index"":10,""viewing_time"":4875.699999809265},{""page_index"":11,""viewing_time"":6901.200000286102},{""page_index"":12,""viewing_time"":8204.799999713898},{""page_index"":13,""viewing_time"":4041.9000000953674},{""page_index"":14,""viewing_time"":2707},{""page_index"":15,""viewing_time"":3216.9000000953674},{""page_index"":16,""viewing_time"":3592},{""page_index"":17,""viewing_time"":5114.099999904633},{""page_index"":18,""viewing_time"":5800.800000190735},{""page_index"":19,""viewing_time"":4277},{""page_index"":20,""viewing_time"":3372.9000000953674},{""page_index"":21,""viewing_time"":1260}]",""
"5629.900000095367","","image-keyboard-response","3","151165","0.0-3.0-0.0","img/fist.png","","","1"
"null","","html-keyboard-response","4","152667","0.0-3.0-1.0","<p style=""font-size: 60px; font-family: monospace;"">+</p>","null","",""
"2604.699999809265","","image-keyboard-response","5","155274","0.0-3.0-2.0","img/grizzly.png","","","1"
"null","","html-keyboard-response","6","156775","0.0-3.0-3.0","<p style=""font-size: 60px; font-family: monospace;"">+</p>","null","",""
"null","","image-keyboard-response","7","157778","0.0-3.0-4.0","img/lost.png","","","null"
"null","","html-keyboard-response","8","159279","0.0-3.0-5.0","<p style=""font-size: 150px; font-family: monospace;"">+</p>","null","",""
"null","","image-keyboard-response","9","165281","0.0-3.0-0.1","img/gun.png","","","null"
"null","","html-keyboard-response","10","166783","0.0-3.0-1.1","<p style=""font-size: 60px; font-family: monospace;"">+</p>","null","",""
"3277.300000190735","","image-keyboard-response","11","170062","0.0-3.0-2.1","img/goose.png","","","1"
"null","","html-keyboard-response","12","171563","0.0-3.0-3.1","<p style=""font-size: 60px; font-family: monospace;"">+</p>","null","",""
"null","","image-keyboard-response","13","172566","0.0-3.0-4.1","img/won.png","","","null"
"null","","html-keyboard-response","14","174067","0.0-3.0-5.1","<p style=""font-size: 150px; font-family: monospace;"">+</p>","null","",""
"null","","image-keyboard-response","15","180068","0.0-3.0-0.2","img/bow.png","","","null"
"null","","html-keyboard-response","16","181569","0.0-3.0-1.2","<p style=""font-size: 60px; font-family: monospace;"">+</p>","null","",""
"1444","","image-keyboard-response","17","183016","0.0-3.0-2.2","img/crow.png","","","1"
"null","","html-keyboard-response","18","184517","0.0-3.0-3.2","<p style=""font-size: 60px; font-family: monospace;"">+</p>","null","",""
"null","","image-keyboard-response","19","185519","0.0-3.0-4.2","img/won.png","","","null"
"null","","html-keyboard-response","20","187020","0.0-3.0-5.2","<p style=""font-size: 150px; font-family: monospace;"">+</p>","null","",""
"null","","image-keyboard-response","21","193022","0.0-3.0-0.3","img/stick.png","","","null"
"null","","html-keyboard-response","22","194523","0.0-3.0-1.3","<p style=""font-size: 60px; font-family: monospace;"">+</p>","null","",""
"1616.5999999046326","","image-keyboard-response","23","196141","0.0-3.0-2.3","img/grizzly.png","","","2"
"null","","html-keyboard-response","24","197643","0.0-3.0-3.3","<p style=""font-size: 60px; font-family: monospace;"">+</p>","null","",""
"null","","image-keyboard-response","25","198645","0.0-3.0-4.3","img/lost.png","","","null"
"null","","html-keyboard-response","26","200146","0.0-3.0-5.3","<p style=""font-size: 150px; font-family: monospace;"">+</p>","null","",""
"4923.299999713898","","image-keyboard-response","27","205070","0.0-3.0-0.4","img/cat.png","","","1"
"null","","html-keyboard-response","28","206571","0.0-3.0-1.4","<p style=""font-size: 60px; font-family: monospace;"">+</p>","null","",""
"null","","image-keyboard-response","29","212573","0.0-3.0-2.4","img/fist.png","","","null"
"null","","html-keyboard-response","30","214074","0.0-3.0-3.4","<p style=""font-size: 60px; font-family: monospace;"">+</p>","null","",""
"null","","image-keyboard-response","31","215078","0.0-3.0-4.4","img/lost.png","","","null"
"null","","html-keyboard-response","32","216579","0.0-3.0-5.4","<p style=""font-size: 150px; font-family: monospace;"">+</p>","null","",""
"null","","image-keyboard-response","33","222582","0.0-3.0-0.5","img/rock.png","","","null"
"null","","html-keyboard-response","34","224083","0.0-3.0-1.5","<p style=""font-size: 60px; font-family: monospace;"">+</p>","null","",""
"1674.9000000953674","","image-keyboard-response","35","225760","0.0-3.0-2.5","img/cat.png","","","1"
"null","","html-keyboard-response","36","227261","0.0-3.0-3.5","<p style=""font-size: 60px; font-family: monospace;"">+</p>","null","",""
"null","","image-keyboard-response","37","228264","0.0-3.0-4.5","img/won.png","","","null"
"null","","html-keyboard-response","38","229765","0.0-3.0-5.5","<p style=""font-size: 150px; font-family: monospace;"">+</p>","null","",""
"null","","image-keyboard-response","39","235767","0.0-3.0-0.6","img/crow.png","","","null"
"null","","html-keyboard-response","40","237268","0.0-3.0-1.6","<p style=""font-size: 60px; font-family: monospace;"">+</p>","null","",""
"702.0999999046326","","image-keyboard-response","41","237972","0.0-3.0-2.6","img/gun.png","","","1"
"null","","html-keyboard-response","42","239473","0.0-3.0-3.6","<p style=""font-size: 60px; font-family: monospace;"">+</p>","null","",""
"null","","image-keyboard-response","43","240475","0.0-3.0-4.6","img/won.png","","","null"
"null","","html-keyboard-response","44","241976","0.0-3.0-5.6","<p style=""font-size: 150px; font-family: monospace;"">+</p>","null","",""
"null","","image-keyboard-response","45","247978","0.0-3.0-0.7","img/lion.png","","","null"
"null","","html-keyboard-response","46","249479","0.0-3.0-1.7","<p style=""font-size: 60px; font-family: monospace;"">+</p>","null","",""
"2521.7000002861023","","image-keyboard-response","47","252003","0.0-3.0-2.7","img/grenade.png","","","1"
"null","","html-keyboard-response","48","253505","0.0-3.0-3.7","<p style=""font-size: 60px; font-family: monospace;"">+</p>","null","",""
"null","","image-keyboard-response","49","254507","0.0-3.0-4.7","img/won.png","","","null"
"null","","html-keyboard-response","50","256008","0.0-3.0-5.7","<p style=""font-size: 150px; font-family: monospace;"">+</p>","null","",""
"6508.199999809265","","html-keyboard-response","51","262517","0.0-4.0","<div><p style=""font-size:30px;"">You finished the instructions.</p><p style=""font-size:30px;"">The scan make take a few minutes longer.  </p><p style=""font-size:30px;"">Please relax and hold still until it is finished. </p><p style=""font-size:30px;"">We will tell you when the main game is ready to begin.</p><br><p style=""font-size:30px;""><b>Please press 3 to end.</b> </p></br></div>","3","",""
