"rt","responses","trial_type","trial_index","time_elapsed","internal_node_id","stimulus","key_press","view_history","response"
"3916.699999809265","{""Q0"":""WA_012""}","survey-text","0","3940","0.0-0.0-0.0","","","",""
"15537.800000190735","","html-keyboard-response","1","19479","0.0-1.0","<p style=""font-size:30px;"">Welcome to the experiment!</p><p style=""font-size:30px;""> You will read instructions for the game</p><p style=""font-size:30px;""> while we take a scan.</p><br><p style=""font-size:30px;"">Press ""3"" with your middle finger to read the instructions.</p></br>","3","",""
"123449.19999980927","","instructions","2","142931","0.0-2.0","","","[{""page_index"":0,""viewing_time"":4136.199999809265},{""page_index"":1,""viewing_time"":3887.800000190735},{""page_index"":2,""viewing_time"":5190},{""page_index"":3,""viewing_time"":6712.400000095367},{""page_index"":4,""viewing_time"":16115.599999904633},{""page_index"":5,""viewing_time"":7897.599999904633},{""page_index"":6,""viewing_time"":13340},{""page_index"":7,""viewing_time"":3698},{""page_index"":8,""viewing_time"":6538.900000095367},{""page_index"":9,""viewing_time"":4750.099999904633},{""page_index"":10,""viewing_time"":4358.800000190735},{""page_index"":11,""viewing_time"":3480.8999996185303},{""page_index"":12,""viewing_time"":7518.900000095367},{""page_index"":13,""viewing_time"":3720.9000000953674},{""page_index"":14,""viewing_time"":4197.099999904633},{""page_index"":15,""viewing_time"":4650.900000095367},{""page_index"":16,""viewing_time"":3813.9000000953674},{""page_index"":17,""viewing_time"":2124},{""page_index"":18,""viewing_time"":3784},{""page_index"":19,""viewing_time"":3647.9000000953674},{""page_index"":20,""viewing_time"":6458},{""page_index"":21,""viewing_time"":3426.8999996185303}]",""
"2576.7999997138977","","image-keyboard-response","3","145526","0.0-3.0-0.0","img/crow.png","","","1"
"null","","html-keyboard-response","4","147027","0.0-3.0-1.0","<p style=""font-size: 60px; font-family: monospace;"">+</p>","null","",""
"3459.199999809265","","image-keyboard-response","5","150489","0.0-3.0-2.0","img/gun.png","","","1"
"null","","html-keyboard-response","6","151990","0.0-3.0-3.0","<p style=""font-size: 60px; font-family: monospace;"">+</p>","null","",""
"null","","image-keyboard-response","7","152993","0.0-3.0-4.0","img/won.png","","","null"
"null","","html-keyboard-response","8","154494","0.0-3.0-5.0","<p style=""font-size: 150px; font-family: monospace;"">+</p>","null","",""
"3598.5","","image-keyboard-response","9","158094","0.0-3.0-0.1","img/stick.png","","","2"
"null","","html-keyboard-response","10","159595","0.0-3.0-1.1","<p style=""font-size: 60px; font-family: monospace;"">+</p>","null","",""
"1682.8000001907349","","image-keyboard-response","11","161279","0.0-3.0-2.1","img/grizzly.png","","","2"
"null","","html-keyboard-response","12","162781","0.0-3.0-3.1","<p style=""font-size: 60px; font-family: monospace;"">+</p>","null","",""
"null","","image-keyboard-response","13","163783","0.0-3.0-4.1","img/lost.png","","","null"
"null","","html-keyboard-response","14","165284","0.0-3.0-5.1","<p style=""font-size: 150px; font-family: monospace;"">+</p>","null","",""
"1880.4000000953674","","image-keyboard-response","15","167166","0.0-3.0-0.2","img/cat.png","","","1"
"null","","html-keyboard-response","16","168667","0.0-3.0-1.2","<p style=""font-size: 60px; font-family: monospace;"">+</p>","null","",""
"2026.8000001907349","","image-keyboard-response","17","170695","0.0-3.0-2.2","img/fist.png","","","1"
"null","","html-keyboard-response","18","172197","0.0-3.0-3.2","<p style=""font-size: 60px; font-family: monospace;"">+</p>","null","",""
"null","","image-keyboard-response","19","173199","0.0-3.0-4.2","img/lost.png","","","null"
"null","","html-keyboard-response","20","174700","0.0-3.0-5.2","<p style=""font-size: 150px; font-family: monospace;"">+</p>","null","",""
"1709.7000002861023","","image-keyboard-response","21","176410","0.0-3.0-0.3","img/lion.png","","","2"
"null","","html-keyboard-response","22","177912","0.0-3.0-1.3","<p style=""font-size: 60px; font-family: monospace;"">+</p>","null","",""
"1685.8000001907349","","image-keyboard-response","23","179599","0.0-3.0-2.3","img/grenade.png","","","1"
"null","","html-keyboard-response","24","181101","0.0-3.0-3.3","<p style=""font-size: 60px; font-family: monospace;"">+</p>","null","",""
"null","","image-keyboard-response","25","182103","0.0-3.0-4.3","img/won.png","","","null"
"null","","html-keyboard-response","26","183604","0.0-3.0-5.3","<p style=""font-size: 150px; font-family: monospace;"">+</p>","null","",""
"1636.9000000953674","","image-keyboard-response","27","185243","0.0-3.0-0.4","img/bow.png","","","1"
"null","","html-keyboard-response","28","186744","0.0-3.0-1.4","<p style=""font-size: 60px; font-family: monospace;"">+</p>","null","",""
"1303.6999998092651","","image-keyboard-response","29","188049","0.0-3.0-2.4","img/crow.png","","","1"
"null","","html-keyboard-response","30","189550","0.0-3.0-3.4","<p style=""font-size: 60px; font-family: monospace;"">+</p>","null","",""
"null","","image-keyboard-response","31","190552","0.0-3.0-4.4","img/won.png","","","null"
"null","","html-keyboard-response","32","192053","0.0-3.0-5.4","<p style=""font-size: 150px; font-family: monospace;"">+</p>","null","",""
"1491.2999997138977","","image-keyboard-response","33","193546","0.0-3.0-0.5","img/gun.png","","","1"
"null","","html-keyboard-response","34","195047","0.0-3.0-1.5","<p style=""font-size: 60px; font-family: monospace;"">+</p>","null","",""
"1533.7999997138977","","image-keyboard-response","35","196582","0.0-3.0-2.5","img/goose.png","","","1"
"null","","html-keyboard-response","36","198083","0.0-3.0-3.5","<p style=""font-size: 60px; font-family: monospace;"">+</p>","null","",""
"null","","image-keyboard-response","37","199085","0.0-3.0-4.5","img/won.png","","","null"
"null","","html-keyboard-response","38","200586","0.0-3.0-5.5","<p style=""font-size: 150px; font-family: monospace;"">+</p>","null","",""
"2647.0999999046326","","image-keyboard-response","39","203234","0.0-3.0-0.6","img/rock.png","","","2"
"null","","html-keyboard-response","40","204735","0.0-3.0-1.6","<p style=""font-size: 60px; font-family: monospace;"">+</p>","null","",""
"1004.9000000953674","","image-keyboard-response","41","205742","0.0-3.0-2.6","img/cat.png","","","1"
"null","","html-keyboard-response","42","207244","0.0-3.0-3.6","<p style=""font-size: 60px; font-family: monospace;"">+</p>","null","",""
"null","","image-keyboard-response","43","208246","0.0-3.0-4.6","img/won.png","","","null"
"null","","html-keyboard-response","44","209747","0.0-3.0-5.6","<p style=""font-size: 150px; font-family: monospace;"">+</p>","null","",""
"3378.5999999046326","","image-keyboard-response","45","213126","0.0-3.0-0.7","img/fist.png","","","2"
"null","","html-keyboard-response","46","214628","0.0-3.0-1.7","<p style=""font-size: 60px; font-family: monospace;"">+</p>","null","",""
"1279.5","","image-keyboard-response","47","215909","0.0-3.0-2.7","img/grizzly.png","","","2"
"null","","html-keyboard-response","48","217410","0.0-3.0-3.7","<p style=""font-size: 60px; font-family: monospace;"">+</p>","null","",""
"null","","image-keyboard-response","49","218412","0.0-3.0-4.7","img/lost.png","","","null"
"null","","html-keyboard-response","50","219913","0.0-3.0-5.7","<p style=""font-size: 150px; font-family: monospace;"">+</p>","null","",""
"4221.5","","html-keyboard-response","51","224135","0.0-4.0","<div><p style=""font-size:30px;"">You finished the instructions.</p><p style=""font-size:30px;"">The scan make take a few minutes longer.  </p><p style=""font-size:30px;"">Please relax and hold still until it is finished. </p><p style=""font-size:30px;"">We will tell you when the main game is ready to begin.</p><br><p style=""font-size:30px;""><b>Please press 3 to end.</b> </p></br></div>","3","",""
