"rt","responses","trial_type","trial_index","time_elapsed","internal_node_id","stimulus","key_press","view_history","response"
"7009.199999809265","{""Q0"":""WA_009""}","survey-text","0","7023","0.0-0.0-0.0","","","",""
"6841.300000190735","","html-keyboard-response","1","13866","0.0-1.0","<p style=""font-size:30px;"">Welcome to the experiment!</p><p style=""font-size:30px;""> You will read instructions for the game</p><p style=""font-size:30px;""> while we take a scan.</p><br><p style=""font-size:30px;"">Press ""3"" with your middle finger to read the instructions.</p></br>","3","",""
"158073.90000009537","","instructions","2","171942","0.0-2.0","","","[{""page_index"":0,""viewing_time"":4015.0999999046326},{""page_index"":1,""viewing_time"":7379.900000095367},{""page_index"":2,""viewing_time"":7483.900000095367},{""page_index"":3,""viewing_time"":7822.900000095367},{""page_index"":4,""viewing_time"":12297.900000095367},{""page_index"":5,""viewing_time"":10751.89999961853},{""page_index"":6,""viewing_time"":8030},{""page_index"":7,""viewing_time"":6002.900000095367},{""page_index"":8,""viewing_time"":6427.900000095367},{""page_index"":9,""viewing_time"":2928.0999999046326},{""page_index"":10,""viewing_time"":7060.800000190735},{""page_index"":11,""viewing_time"":5112.900000095367},{""page_index"":12,""viewing_time"":12145.89999961853},{""page_index"":13,""viewing_time"":7893.900000095367},{""page_index"":14,""viewing_time"":3125.9000000953674},{""page_index"":15,""viewing_time"":8294},{""page_index"":16,""viewing_time"":4122},{""page_index"":17,""viewing_time"":3073.9000000953674},{""page_index"":18,""viewing_time"":13825},{""page_index"":19,""viewing_time"":5663.799999713898},{""page_index"":20,""viewing_time"":7650.10000038147},{""page_index"":21,""viewing_time"":6964.699999809265}]",""
"4126.5","","image-keyboard-response","3","176073","0.0-3.0-0.0","img/cat.png","","","1"
"null","","html-keyboard-response","4","177575","0.0-3.0-1.0","<p style=""font-size: 60px; font-family: monospace;"">+</p>","null","",""
"1885.3000001907349","","image-keyboard-response","5","179462","0.0-3.0-2.0","img/fist.png","","","1"
"null","","html-keyboard-response","6","180964","0.0-3.0-3.0","<p style=""font-size: 60px; font-family: monospace;"">+</p>","null","",""
"null","","image-keyboard-response","7","181967","0.0-3.0-4.0","img/lost.png","","","null"
"null","","html-keyboard-response","8","183468","0.0-3.0-5.0","<p style=""font-size: 150px; font-family: monospace;"">+</p>","null","",""
"2983.800000190735","","image-keyboard-response","9","186453","0.0-3.0-0.1","img/gun.png","","","1"
"null","","html-keyboard-response","10","187954","0.0-3.0-1.1","<p style=""font-size: 60px; font-family: monospace;"">+</p>","null","",""
"2010.3000001907349","","image-keyboard-response","11","189966","0.0-3.0-2.1","img/goose.png","","","1"
"null","","html-keyboard-response","12","191468","0.0-3.0-3.1","<p style=""font-size: 60px; font-family: monospace;"">+</p>","null","",""
"null","","image-keyboard-response","13","192470","0.0-3.0-4.1","img/won.png","","","null"
"null","","html-keyboard-response","14","193971","0.0-3.0-5.1","<p style=""font-size: 150px; font-family: monospace;"">+</p>","null","",""
"2431.6000003814697","","image-keyboard-response","15","196405","0.0-3.0-0.2","img/crow.png","","","1"
"null","","html-keyboard-response","16","197907","0.0-3.0-1.2","<p style=""font-size: 60px; font-family: monospace;"">+</p>","null","",""
"1837.1000003814697","","image-keyboard-response","17","199745","0.0-3.0-2.2","img/gun.png","","","1"
"null","","html-keyboard-response","18","201247","0.0-3.0-3.2","<p style=""font-size: 60px; font-family: monospace;"">+</p>","null","",""
"null","","image-keyboard-response","19","202250","0.0-3.0-4.2","img/won.png","","","null"
"null","","html-keyboard-response","20","203751","0.0-3.0-5.2","<p style=""font-size: 150px; font-family: monospace;"">+</p>","null","",""
"3096.5999999046326","","image-keyboard-response","21","206849","0.0-3.0-0.3","img/rock.png","","","2"
"null","","html-keyboard-response","22","208350","0.0-3.0-1.3","<p style=""font-size: 60px; font-family: monospace;"">+</p>","null","",""
"1304.5999999046326","","image-keyboard-response","23","209657","0.0-3.0-2.3","img/cat.png","","","1"
"null","","html-keyboard-response","24","211158","0.0-3.0-3.3","<p style=""font-size: 60px; font-family: monospace;"">+</p>","null","",""
"null","","image-keyboard-response","25","212160","0.0-3.0-4.3","img/won.png","","","null"
"null","","html-keyboard-response","26","213661","0.0-3.0-5.3","<p style=""font-size: 150px; font-family: monospace;"">+</p>","null","",""
"1774.6999998092651","","image-keyboard-response","27","215437","0.0-3.0-0.4","img/lion.png","","","2"
"null","","html-keyboard-response","28","216937","0.0-3.0-1.4","<p style=""font-size: 60px; font-family: monospace;"">+</p>","null","",""
"1669.5999999046326","","image-keyboard-response","29","218609","0.0-3.0-2.4","img/grenade.png","","","1"
"null","","html-keyboard-response","30","220110","0.0-3.0-3.4","<p style=""font-size: 60px; font-family: monospace;"">+</p>","null","",""
"null","","image-keyboard-response","31","221112","0.0-3.0-4.4","img/won.png","","","null"
"null","","html-keyboard-response","32","222613","0.0-3.0-5.4","<p style=""font-size: 150px; font-family: monospace;"">+</p>","null","",""
"2403.5","","image-keyboard-response","33","225018","0.0-3.0-0.5","img/bow.png","","","1"
"null","","html-keyboard-response","34","226519","0.0-3.0-1.5","<p style=""font-size: 60px; font-family: monospace;"">+</p>","null","",""
"1690.6999998092651","","image-keyboard-response","35","228212","0.0-3.0-2.5","img/crow.png","","","1"
"null","","html-keyboard-response","36","229713","0.0-3.0-3.5","<p style=""font-size: 60px; font-family: monospace;"">+</p>","null","",""
"null","","image-keyboard-response","37","230715","0.0-3.0-4.5","img/won.png","","","null"
"null","","html-keyboard-response","38","232216","0.0-3.0-5.5","<p style=""font-size: 150px; font-family: monospace;"">+</p>","null","",""
"3533.2000002861023","","image-keyboard-response","39","235752","0.0-3.0-0.6","img/fist.png","","","1"
"null","","html-keyboard-response","40","237252","0.0-3.0-1.6","<p style=""font-size: 60px; font-family: monospace;"">+</p>","null","",""
"900.5","","image-keyboard-response","41","238155","0.0-3.0-2.6","img/grizzly.png","","","2"
"null","","html-keyboard-response","42","239656","0.0-3.0-3.6","<p style=""font-size: 60px; font-family: monospace;"">+</p>","null","",""
"null","","image-keyboard-response","43","240658","0.0-3.0-4.6","img/lost.png","","","null"
"null","","html-keyboard-response","44","242159","0.0-3.0-5.6","<p style=""font-size: 150px; font-family: monospace;"">+</p>","null","",""
"1803.3000001907349","","image-keyboard-response","45","243964","0.0-3.0-0.7","img/stick.png","","","2"
"null","","html-keyboard-response","46","245465","0.0-3.0-1.7","<p style=""font-size: 60px; font-family: monospace;"">+</p>","null","",""
"1421.5","","image-keyboard-response","47","246887","0.0-3.0-2.7","img/grizzly.png","","","2"
"null","","html-keyboard-response","48","248389","0.0-3.0-3.7","<p style=""font-size: 60px; font-family: monospace;"">+</p>","null","",""
"null","","image-keyboard-response","49","249391","0.0-3.0-4.7","img/lost.png","","","null"
"null","","html-keyboard-response","50","250892","0.0-3.0-5.7","<p style=""font-size: 150px; font-family: monospace;"">+</p>","null","",""
"10970.700000286102","","html-keyboard-response","51","261864","0.0-4.0","<div><p style=""font-size:30px;"">You finished the instructions.</p><p style=""font-size:30px;"">The scan make take a few minutes longer.  </p><p style=""font-size:30px;"">Please relax and hold still until it is finished. </p><p style=""font-size:30px;"">We will tell you when the main game is ready to begin.</p><br><p style=""font-size:30px;""><b>Please press 3 to end.</b> </p></br></div>","3","",""
