"rt","responses","trial_type","trial_index","time_elapsed","internal_node_id","stimulus","key_press","view_history","response"
"12135.100000023842","{""Q0"":""WA_002""}","survey-text","0","12153","0.0-0.0-0.0","","","",""
"7086.899999976158","","html-keyboard-response","1","19242","0.0-1.0","<p style=""font-size:30px;"">Welcome to the experiment!</p><p style=""font-size:30px;""> You will read instructions for the game</p><p style=""font-size:30px;""> while we take a scan.</p><br><p style=""font-size:30px;"">Press ""3"" with your middle finger to read the instructions.</p></br>","3","",""
"144939.60000002384","","instructions","2","164183","0.0-2.0","","","[{""page_index"":0,""viewing_time"":5026.600000023842},{""page_index"":1,""viewing_time"":48904.5},{""page_index"":2,""viewing_time"":4743.100000023842},{""page_index"":3,""viewing_time"":7579.899999976158},{""page_index"":4,""viewing_time"":6581},{""page_index"":5,""viewing_time"":7138.899999976158},{""page_index"":6,""viewing_time"":3019.899999976158},{""page_index"":7,""viewing_time"":3333},{""page_index"":8,""viewing_time"":3205},{""page_index"":9,""viewing_time"":2331},{""page_index"":10,""viewing_time"":8517.800000071526},{""page_index"":11,""viewing_time"":3044},{""page_index"":12,""viewing_time"":3953.100000023842},{""page_index"":13,""viewing_time"":4670.799999952316},{""page_index"":14,""viewing_time"":4484.899999976158},{""page_index"":15,""viewing_time"":3760},{""page_index"":16,""viewing_time"":3201.899999976158},{""page_index"":17,""viewing_time"":2407},{""page_index"":18,""viewing_time"":7348.900000095367},{""page_index"":19,""viewing_time"":4914.099999904633},{""page_index"":20,""viewing_time"":4694},{""page_index"":21,""viewing_time"":2079.8000000715256}]",""
"3637.8000000715256","","image-keyboard-response","3","167825","0.0-3.0-0.0","img/cat.png","","","1"
"null","","html-keyboard-response","4","169327","0.0-3.0-1.0","<p style=""font-size: 60px; font-family: monospace;"">+</p>","null","",""
"4074","","image-keyboard-response","5","173403","0.0-3.0-2.0","img/fist.png","","","1"
"null","","html-keyboard-response","6","174904","0.0-3.0-3.0","<p style=""font-size: 60px; font-family: monospace;"">+</p>","null","",""
"null","","image-keyboard-response","7","175907","0.0-3.0-4.0","img/lost.png","","","null"
"null","","html-keyboard-response","8","177408","0.0-3.0-5.0","<p style=""font-size: 150px; font-family: monospace;"">+</p>","null","",""
"3938.399999976158","","image-keyboard-response","9","181348","0.0-3.0-0.1","img/gun.png","","","1"
"null","","html-keyboard-response","10","182850","0.0-3.0-1.1","<p style=""font-size: 60px; font-family: monospace;"">+</p>","null","",""
"2211.600000023842","","image-keyboard-response","11","185063","0.0-3.0-2.1","img/goose.png","","","1"
"null","","html-keyboard-response","12","186564","0.0-3.0-3.1","<p style=""font-size: 60px; font-family: monospace;"">+</p>","null","",""
"null","","image-keyboard-response","13","187566","0.0-3.0-4.1","img/won.png","","","null"
"null","","html-keyboard-response","14","189067","0.0-3.0-5.1","<p style=""font-size: 150px; font-family: monospace;"">+</p>","null","",""
"3122.7000000476837","","image-keyboard-response","15","192192","0.0-3.0-0.2","img/bow.png","","","1"
"null","","html-keyboard-response","16","193693","0.0-3.0-1.2","<p style=""font-size: 60px; font-family: monospace;"">+</p>","null","",""
"1854.1999999284744","","image-keyboard-response","17","195550","0.0-3.0-2.2","img/crow.png","","","1"
"null","","html-keyboard-response","18","197051","0.0-3.0-3.2","<p style=""font-size: 60px; font-family: monospace;"">+</p>","null","",""
"null","","image-keyboard-response","19","198053","0.0-3.0-4.2","img/won.png","","","null"
"null","","html-keyboard-response","20","199554","0.0-3.0-5.2","<p style=""font-size: 150px; font-family: monospace;"">+</p>","null","",""
"1712.0999999046326","","image-keyboard-response","21","201268","0.0-3.0-0.3","img/rock.png","","","2"
"null","","html-keyboard-response","22","202769","0.0-3.0-1.3","<p style=""font-size: 60px; font-family: monospace;"">+</p>","null","",""
"3369.3000000715256","","image-keyboard-response","23","206140","0.0-3.0-2.3","img/cat.png","","","1"
"null","","html-keyboard-response","24","207641","0.0-3.0-3.3","<p style=""font-size: 60px; font-family: monospace;"">+</p>","null","",""
"null","","image-keyboard-response","25","208643","0.0-3.0-4.3","img/won.png","","","null"
"null","","html-keyboard-response","26","210144","0.0-3.0-5.3","<p style=""font-size: 150px; font-family: monospace;"">+</p>","null","",""
"2675.899999976158","","image-keyboard-response","27","212821","0.0-3.0-0.4","img/lion.png","","","2"
"null","","html-keyboard-response","28","214322","0.0-3.0-1.4","<p style=""font-size: 60px; font-family: monospace;"">+</p>","null","",""
"2092","","image-keyboard-response","29","216416","0.0-3.0-2.4","img/grenade.png","","","1"
"null","","html-keyboard-response","30","217917","0.0-3.0-3.4","<p style=""font-size: 60px; font-family: monospace;"">+</p>","null","",""
"null","","image-keyboard-response","31","218919","0.0-3.0-4.4","img/won.png","","","null"
"null","","html-keyboard-response","32","220420","0.0-3.0-5.4","<p style=""font-size: 150px; font-family: monospace;"">+</p>","null","",""
"1588.4000000953674","","image-keyboard-response","33","222011","0.0-3.0-0.5","img/fist.png","","","2"
"null","","html-keyboard-response","34","223512","0.0-3.0-1.5","<p style=""font-size: 60px; font-family: monospace;"">+</p>","null","",""
"2198.2000000476837","","image-keyboard-response","35","225711","0.0-3.0-2.5","img/grizzly.png","","","2"
"null","","html-keyboard-response","36","227212","0.0-3.0-3.5","<p style=""font-size: 60px; font-family: monospace;"">+</p>","null","",""
"null","","image-keyboard-response","37","228214","0.0-3.0-4.5","img/lost.png","","","null"
"null","","html-keyboard-response","38","229715","0.0-3.0-5.5","<p style=""font-size: 150px; font-family: monospace;"">+</p>","null","",""
"1854.6000000238419","","image-keyboard-response","39","231570","0.0-3.0-0.6","img/stick.png","","","2"
"null","","html-keyboard-response","40","233072","0.0-3.0-1.6","<p style=""font-size: 60px; font-family: monospace;"">+</p>","null","",""
"1930.7999999523163","","image-keyboard-response","41","235005","0.0-3.0-2.6","img/grizzly.png","","","2"
"null","","html-keyboard-response","42","236505","0.0-3.0-3.6","<p style=""font-size: 60px; font-family: monospace;"">+</p>","null","",""
"null","","image-keyboard-response","43","237507","0.0-3.0-4.6","img/lost.png","","","null"
"null","","html-keyboard-response","44","239008","0.0-3.0-5.6","<p style=""font-size: 150px; font-family: monospace;"">+</p>","null","",""
"3215.7999999523163","","image-keyboard-response","45","242225","0.0-3.0-0.7","img/crow.png","","","1"
"null","","html-keyboard-response","46","243726","0.0-3.0-1.7","<p style=""font-size: 60px; font-family: monospace;"">+</p>","null","",""
"2934.899999976158","","image-keyboard-response","47","246663","0.0-3.0-2.7","img/gun.png","","","1"
"null","","html-keyboard-response","48","248165","0.0-3.0-3.7","<p style=""font-size: 60px; font-family: monospace;"">+</p>","null","",""
"null","","image-keyboard-response","49","249167","0.0-3.0-4.7","img/won.png","","","null"
"null","","html-keyboard-response","50","250668","0.0-3.0-5.7","<p style=""font-size: 150px; font-family: monospace;"">+</p>","null","",""
"3871.899999976158","","html-keyboard-response","51","254548","0.0-4.0","<div><p style=""font-size:30px;"">You finished the instructions.</p><p style=""font-size:30px;"">The scan make take a few minutes longer.  </p><p style=""font-size:30px;"">Please relax and hold still until it is finished. </p><p style=""font-size:30px;"">We will tell you when the main game is ready to begin.</p><br><p style=""font-size:30px;""><b>Please press 3 to end.</b> </p></br></div>","3","",""
