RunNumA,SetNumA,BattleNumA,FirstStimA,SecondStimA,ConfidenceA,OutcomeA,OutcomeNumA,ToneA,RunNumH,SetNumH,BattleNumH,FirstStimH,SecondStimH,ConfidenceH,OutcomeH,OutcomeNumH,ToneH,RunNumL,SetNumL,BattleNumL,FirstStimL,SecondStimL,ConfidenceL,OutcomeL,OutcomeNumL,ToneL,FullLoop.thisRepN,FullLoop.thisTrialN,FullLoop.thisN,FullLoop.thisIndex,loopA.thisRepN,loopA.thisTrialN,loopA.thisN,loopA.thisIndex,loop1.thisRepN,loop1.thisTrialN,loop1.thisN,loop1.thisIndex,loopH.thisRepN,loopH.thisTrialN,loopH.thisN,loopH.thisIndex,loop2.thisRepN,loop2.thisTrialN,loop2.thisN,loop2.thisIndex,loopL.thisRepN,loopL.thisTrialN,loopL.thisN,loopL.thisIndex,loop3.thisRepN,loop3.thisTrialN,loop3.thisN,loop3.thisIndex,trigger_image.started,trigger_resp.started,trigger_resp.keys,trigger_resp.rt,wait.started,firststim_img_loop1.started,isi_conf_stim1_loop1.started,conf_img_stim1_loop1.started,conf_resp_stim1_loop1.started,conf_resp_stim1_loop1.keys,conf_resp_stim1_loop1.rt,isi_stim_1,isi_stim_loop1.started,isi_stim_loop1.stopped,secondstim_img_loop1.started,isi_conf_stim2_loop1.started,conf_img_stim2_loop1.started,conf_resp_stim2_loop1.started,conf_resp_stim2_loop1.keys,conf_resp_stim2_loop1.rt,isi_outcome.started,outcome_img_loop1.started,Tone_loop1.started,Tone_loop1.stopped,jitter_iti_1,iti_loop1.started,iti_loop1.stopped,firststim_img_loop2.started,isi_conf_stim1_loop2.started,conf_img_stim1_loop2.started,conf_resp_stim1_loop2.started,conf_resp_stim1_loop2.keys,conf_resp_stim1_loop2.rt,isi_stim_2,isi_stim_loop2.started,isi_stim_loop2.stopped,secondstim_img_loop2.started,isi_conf_loop2.started,conf_img_stim2_loop2.started,conf_resp_stim2_loop2.started,conf_resp_stim2_loop2.keys,conf_resp_stim2_loop2.rt,outcome_image_loop2.started,Tone_loop2.started,Tone_loop2.stopped,jitter_iti_2,iti_loop2.started,iti_loop2.stopped,firststim_img_loop3.started,isi_conf_stim1_loop3.started,conf_img_stim1_loop3.started,conf_resp_stim1_loop3.started,conf_resp_stim1_loop3.keys,conf_resp_stim1_loop3.rt,isi_stim_3,isi_stim_loop3.started,isi_stim_loop3.stopped,secondstim_img_loop3.started,isi_conf_stim2_loop3.started,conf_img_stim2_loop3.started,conf_resp_stim2_loop3.started,conf_resp_stim2_loop3.keys,conf_resp_stim2_loop3.rt,outcome_img_loop3.started,Tone_loop3.started,Tone_loop3.stopped,jitter_iti_3,iti_loop3.started,iti_loop3.stopped,completion_prompt.started,completion_prompt_resp.started,completion_prompt_resp.keys,completion_prompt_resp.rt,participant,run,date,expName,psychopyVersion,frameRate,
,,,,,,,,,,,,,,,,,,,,,,,,,,,,,,,,,,,,,,,,,,,,,,,,,,,,,,,16.85533192229923,16.85533192229923,t,23.766736346064135,,,,,,,,,,,,,,,,,,,,,,,,,,,,,,,,,,,,,,,,,,,,,,,,,,,,,,,,,,,,,,,,,,,,,,Maddy,002,2023-12-14_09h51.06.876,Gen_Run2_Tone,2023.1.0,59.904901966537736,
1,1,69,img/Agent_AW.png,img/HM.png,img/confidence.png,img/lost.png,0,img/WhiteNoiseLong.wav,,,,,,,,,,,,,,,,,,,0,0,0,0,0,0,0,0,0,0,0,20,,,,,,,,,,,,,,,,,,,,,40.64297862094827,45.65681029309053,46.644951242022216,46.899707505945116,46.899707505945116,['b'],[1.0865489996504039],1.0,48.0122680820059,49.01681606157217,49.01681606157217,50.01381090772338,50.26617215084843,50.26617215084843,['a'],[0.30787509598303586],50.59719162469264,50.86880263464991,51.03082428833004,52.33181250456255,1.5,52.348259926307946,53.852031515329145,,,,,,,,,,,,,,,,,,,,,,,,,,,,,,,,,,,,,,,,,,,,,,,Maddy,002,2023-12-14_09h51.06.876,Gen_Run2_Tone,2023.1.0,59.904901966537736,
1,1,54,img/Agent_AM.png,img/AW.png,img/confidence.png,img/lost.png,0,img/WhiteNoiseLong.wav,,,,,,,,,,,,,,,,,,,0,0,0,0,0,0,0,0,0,1,1,5,,,,,,,,,,,,,,,,,,,,,,53.852031515329145,54.850416156230494,55.10268836829346,55.10268836829346,['b'],[0.4162759587634355],0.5,55.55075979337562,56.05357707175426,56.05357707175426,57.051812948309816,57.30417333811056,57.30417333811056,['c'],[0.7431365727679804],58.070413044421,58.33845854527317,58.50286497974302,59.80368423613254,2.0,59.82026449334808,61.82705958292354,,,,,,,,,,,,,,,,,,,,,,,,,,,,,,,,,,,,,,,,,,,,,,,Maddy,002,2023-12-14_09h51.06.876,Gen_Run2_Tone,2023.1.0,59.904901966537736,
1,1,57,img/Agent_AS.png,img/LS.png,img/confidence.png,img/lost.png,0,img/WhiteNoiseLong.wav,,,,,,,,,,,,,,,,,,,0,0,0,0,0,0,0,0,0,2,2,8,,,,,,,,,,,,,,,,,,,,,,61.82705958292354,62.83960926462896,63.09176229452714,63.09176229452714,['c'],[0.7323245611041784],1.0,63.84097488166299,64.84285022271797,64.84285022271797,65.84159155678935,66.09404837316833,66.09404837316833,['a'],[0.33105702057946473],66.45875600574072,66.72783091047313,66.89210365603212,68.19333279668353,2.0,68.20984990731813,70.21353858080693,,,,,,,,,,,,,,,,,,,,,,,,,,,,,,,,,,,,,,,,,,,,,,,Maddy,002,2023-12-14_09h51.06.876,Gen_Run2_Tone,2023.1.0,59.904901966537736,
1,1,71,img/Agent_AW.png,img/AM.png,img/confidence.png,img/lost.png,0,img/WhiteNoiseLong.wav,,,,,,,,,,,,,,,,,,,0,0,0,0,0,0,0,0,0,3,3,22,,,,,,,,,,,,,,,,,,,,,,70.21353858080693,71.21171045734081,71.46425033151172,71.46425033151172,['a'],[0.7818118929862976],2.0,72.26267462398391,74.26652031065896,74.26652031065896,75.26494619599544,75.51724685239606,75.51724685239606,['a'],[0.34381235553883016],75.88187484059017,76.15245815331582,76.31569978846237,77.6165958448546,1.0,77.63305862655398,78.63808674819302,,,,,,,,,,,,,,,,,,,,,,,,,,,,,,,,,,,,,,,,,,,,,,,Maddy,002,2023-12-14_09h51.06.876,Gen_Run2_Tone,2023.1.0,59.904901966537736,
1,1,68,img/Agent_AW.png,img/HS.png,img/confidence.png,img/lost.png,0,img/WhiteNoiseLong.wav,,,,,,,,,,,,,,,,,,,0,0,0,0,0,0,0,0,0,4,4,19,,,,,,,,,,,,,,,,,,,,,,78.63808674819302,79.63471523008775,79.88714616198558,79.88714616198558,['a'],[0.4089097052346915],1.0,80.31856365886051,81.32151732826605,81.32151732826605,82.32003821793478,82.57214488345198,82.57214488345198,['a'],[0.09188432106748223],82.68741080898326,82.95713766000699,83.12050871721003,84.4229564171983,0.5,84.43979210534599,84.94583099975716,,,,,,,,,,,,,,,,,,,,,,,,,,,,,,,,,,,,,,,,,,,,,,,Maddy,002,2023-12-14_09h51.06.876,Gen_Run2_Tone,2023.1.0,59.904901966537736,
1,1,51,img/Agent_AM.png,img/LW.png,img/confidence.png,img/lost.png,0,img/WhiteNoiseLong.wav,,,,,,,,,,,,,,,,,,,0,0,0,0,0,0,0,0,0,5,5,2,,,,,,,,,,,,,,,,,,,,,,84.94583099975716,85.94033439841587,86.19659736379981,86.19659736379981,['a'],[0.7544261664152145],0.5,86.97361523285508,87.47617708030157,87.47617708030157,88.47505750751588,88.72674461768474,88.72674461768474,['a'],[0.49833614320959896],89.25841763080098,89.52804492635187,89.69181676553562,90.99302286619786,1.0,91.00967850117013,92.01276500616223,,,,,,,,,,,,,,,,,,,,,,,,,,,,,,,,,,,,,,,,,,,,,,,Maddy,002,2023-12-14_09h51.06.876,Gen_Run2_Tone,2023.1.0,59.904901966537736,
1,1,67,img/Agent_AW.png,img/LW.png,img/confidence.png,img/lost.png,0,img/WhiteNoiseLong.wav,,,,,,,,,,,,,,,,,,,0,0,0,0,0,0,0,0,0,6,6,18,,,,,,,,,,,,,,,,,,,,,,92.01276500616223,93.01101538934745,93.26335217023734,93.26335217023734,['a'],[0.3835588929941878],1.0,93.67798972991295,94.68105148815084,94.68105148815084,95.67955047567375,95.93215946969576,95.93215946969576,['a'],[0.20087739685550332],96.1630778806284,96.41826593095902,96.59696000181138,97.89814533793833,0.5,97.91475859074853,98.41760431358125,,,,,,,,,,,,,,,,,,,,,,,,,,,,,,,,,,,,,,,,,,,,,,,Maddy,002,2023-12-14_09h51.06.876,Gen_Run2_Tone,2023.1.0,59.904901966537736,
1,1,70,img/Agent_AW.png,img/AS.png,img/confidence.png,img/lost.png,0,img/WhiteNoiseLong.wav,,,,,,,,,,,,,,,,,,,0,0,0,0,0,0,0,0,0,7,7,21,,,,,,,,,,,,,,,,,,,,,,98.41760431358125,99.41568915022071,99.66804925550241,99.66804925550241,['a'],[0.13106253871228546],1.0,99.81580355367623,100.82409368234221,100.82409368234221,101.83392720564734,102.08622587099671,102.08622587099671,['a'],[0.6367706244345754],102.75126940372866,103.00632490310818,103.18629100867547,104.48748942941893,1.0,104.5054819524521,105.52328532014508,,,,,,,,,,,,,,,,,,,,,,,,,,,,,,,,,,,,,,,,,,,,,,,Maddy,002,2023-12-14_09h51.06.876,Gen_Run2_Tone,2023.1.0,59.904901966537736,
1,1,61,img/Agent_AS.png,img/HW.png,img/confidence.png,img/lost.png,0,img/WhiteNoiseLong.wav,,,,,,,,,,,,,,,,,,,0,0,0,0,0,0,0,0,0,8,8,12,,,,,,,,,,,,,,,,,,,,,,105.52328532014508,106.52217285858933,106.77768318424933,106.77768318424933,['c'],[0.3303863009205088],0.5,107.13803369924426,107.64078555547167,107.64078555547167,108.63929307635408,108.89113691530656,108.89113691530656,['b'],[0.3699624561704695],109.28930145327467,109.55856750451494,109.72292842792812,111.02505982574075,0.5,111.0407264479436,111.54310738889035,,,,,,,,,,,,,,,,,,,,,,,,,,,,,,,,,,,,,,,,,,,,,,,Maddy,002,2023-12-14_09h51.06.876,Gen_Run2_Tone,2023.1.0,59.904901966537736,
1,1,49,img/Agent_AM.png,img/LS.png,img/confidence.png,img/lost.png,0,img/WhiteNoiseLong.wav,,,,,,,,,,,,,,,,,,,0,0,0,0,0,0,0,0,0,9,9,0,,,,,,,,,,,,,,,,,,,,,,111.54310738889035,112.54164193186443,112.79402564605698,112.79402564605698,['b'],[0.35738717450294644],0.5,113.1753149580909,113.6779939965345,113.6779939965345,114.67672423727345,114.92898734705523,114.92898734705523,['a'],[0.3040311159566045],115.26018573646434,115.51535899576265,115.69388126216363,116.99510329170153,1.0,117.01163718453608,118.0146867117146,,,,,,,,,,,,,,,,,,,,,,,,,,,,,,,,,,,,,,,,,,,,,,,Maddy,002,2023-12-14_09h51.06.876,Gen_Run2_Tone,2023.1.0,59.904901966537736,
1,1,52,img/Agent_AM.png,img/HM.png,img/confidence.png,img/lost.png,0,img/WhiteNoiseLong.wav,,,,,,,,,,,,,,,,,,,0,0,0,0,0,0,0,0,0,10,10,3,,,,,,,,,,,,,,,,,,,,,,118.0146867117146,119.01399010769092,119.26523832022212,119.26523832022212,['b'],[0.414769257302396],0.5,119.69705034128856,120.2018530407222,120.2018530407222,121.21430544252507,121.46689879219048,121.46689879219048,['a'],[1.3962863523047417],122.88271082227584,123.15428912115749,123.31592535281088,124.61723584448919,1.0,124.63376234169118,125.63658488239162,,,,,,,,,,,,,,,,,,,,,,,,,,,,,,,,,,,,,,,,,,,,,,,Maddy,002,2023-12-14_09h51.06.876,Gen_Run2_Tone,2023.1.0,59.904901966537736,
1,1,55,img/Agent_AM.png,img/HW.png,img/confidence.png,img/won.png,1,img/Silent.wav,,,,,,,,,,,,,,,,,,,0,0,0,0,0,0,0,0,0,11,11,6,,,,,,,,,,,,,,,,,,,,,,125.63658488239162,126.63506111432798,126.8874670151854,126.8874670151854,['b'],[0.2684718827949837],1.0,127.18541244568769,128.190999215818,128.190999215818,129.1870593780186,129.439124230179,129.439124230179,['b'],[0.41007962450385094],129.8708389713429,130.1726989239687,130.30428703043145,131.60658937937114,1.0,131.6219988639932,132.62568554631434,,,,,,,,,,,,,,,,,,,,,,,,,,,,,,,,,,,,,,,,,,,,,,,Maddy,002,2023-12-14_09h51.06.876,Gen_Run2_Tone,2023.1.0,59.904901966537736,
1,1,72,img/Agent_AW.png,img/HW.png,img/confidence.png,img/won.png,1,img/Silent.wav,,,,,,,,,,,,,,,,,,,0,0,0,0,0,0,0,0,0,12,12,23,,,,,,,,,,,,,,,,,,,,,,132.62568554631434,133.62373368965928,133.87640383921098,133.87640383921098,['a'],[0.30698905198369175],1.0,134.2077262463281,135.2106167691527,135.2106167691527,136.2086066013435,136.46145851083566,136.46145851083566,['a'],[0.1384748723357916],136.6257077329792,136.93680188490544,137.05931735651103,138.36522645899095,2.0,138.37852280691732,140.38700237544253,,,,,,,,,,,,,,,,,,,,,,,,,,,,,,,,,,,,,,,,,,,,,,,Maddy,002,2023-12-14_09h51.06.876,Gen_Run2_Tone,2023.1.0,59.904901966537736,
1,1,65,img/Agent_AW.png,img/LS.png,img/confidence.png,img/lost.png,0,img/WhiteNoiseLong.wav,,,,,,,,,,,,,,,,,,,0,0,0,0,0,0,0,0,0,13,13,16,,,,,,,,,,,,,,,,,,,,,,140.38700237544253,141.3958722015377,141.64805054687895,141.64805054687895,['a'],[0.4736389839090407],0.5,142.14618701022118,142.64924293733202,142.64924293733202,143.64728169399314,143.89966882159933,143.89966882159933,['a'],[0.37839679804164916],144.29768516402692,144.57181834138464,144.73153969408014,146.03266956366133,1.5,146.04953483410645,147.55230290361214,,,,,,,,,,,,,,,,,,,,,,,,,,,,,,,,,,,,,,,,,,,,,,,Maddy,002,2023-12-14_09h51.06.876,Gen_Run2_Tone,2023.1.0,59.904901966537736,
1,1,50,img/Agent_AM.png,img/LM.png,img/confidence.png,img/lost.png,0,img/WhiteNoiseLong.wav,,,,,,,,,,,,,,,,,,,0,0,0,0,0,0,0,0,0,14,14,1,,,,,,,,,,,,,,,,,,,,,,147.55230290361214,148.55086645996198,148.80323396087624,148.80323396087624,['a'],[0.5889945094240829],1.0,149.41811972658616,150.42278944840655,150.42278944840655,151.41981188568752,151.67184232000727,151.67184232000727,['a'],[0.4292016758117825],152.12005852733273,152.39043647120707,152.55372247968336,153.856323495158,1.5,153.87291399238165,155.38026218372397,,,,,,,,,,,,,,,,,,,,,,,,,,,,,,,,,,,,,,,,,,,,,,,Maddy,002,2023-12-14_09h51.06.876,Gen_Run2_Tone,2023.1.0,59.904901966537736,
1,1,56,img/Agent_AM.png,img/AS.png,img/confidence.png,img/won.png,1,img/Silent.wav,,,,,,,,,,,,,,,,,,,0,0,0,0,0,0,0,0,0,15,15,7,,,,,,,,,,,,,,,,,,,,,,155.38026218372397,156.3903699113289,156.64290466543753,156.64290466543753,['b'],[0.5066911251051351],0.5,157.1737249145517,157.67635616636835,157.67635616636835,158.67469643393997,158.92703861929476,158.92703861929476,['a'],[0.32593730790540576],159.2752675411757,159.59052197518758,159.70879097813742,161.01516912924126,1.5,161.0287667036755,162.53510710899718,,,,,,,,,,,,,,,,,,,,,,,,,,,,,,,,,,,,,,,,,,,,,,,Maddy,002,2023-12-14_09h51.06.876,Gen_Run2_Tone,2023.1.0,59.904901966537736,
1,1,64,img/Agent_AS.png,img/AW.png,img/confidence.png,img/lost.png,0,img/WhiteNoiseLong.wav,,,,,,,,,,,,,,,,,,,0,0,0,0,0,0,0,0,0,16,16,15,,,,,,,,,,,,,,,,,,,,,,162.53510710899718,163.54540968092624,163.7975146396784,163.7975146396784,['c'],[0.9883818732341751],1.0,164.8139014748158,165.81581891374663,165.81581891374663,166.8141068435507,167.06615434458945,167.06615434458945,['a'],[0.5311812089057639],167.63266808458138,167.9074250482954,168.08152961051093,169.38220010255463,1.5,169.39901559532154,170.9076551636681,,,,,,,,,,,,,,,,,,,,,,,,,,,,,,,,,,,,,,,,,,,,,,,Maddy,002,2023-12-14_09h51.06.876,Gen_Run2_Tone,2023.1.0,59.904901966537736,
1,1,62,img/Agent_AS.png,img/HM.png,img/confidence.png,img/won.png,1,img/Silent.wav,,,,,,,,,,,,,,,,,,,0,0,0,0,0,0,0,0,0,17,17,13,,,,,,,,,,,,,,,,,,,,,,170.9076551636681,171.90175465145148,172.1576703103492,172.1576703103492,['c'],[1.1323311602463946],0.5,173.3186162810307,173.82094175519887,173.82094175519887,174.8196523692459,175.07271362980828,175.07271362980828,['b'],[0.3602054483490065],175.45353247097228,175.76845154515468,175.88726781886072,177.1950406001415,1.0,177.22150358953513,178.22660964890383,,,,,,,,,,,,,,,,,,,,,,,,,,,,,,,,,,,,,,,,,,,,,,,Maddy,002,2023-12-14_09h51.06.876,Gen_Run2_Tone,2023.1.0,59.904901966537736,
1,1,58,img/Agent_AS.png,img/LM.png,img/confidence.png,img/lost.png,0,img/WhiteNoiseLong.wav,,,,,,,,,,,,,,,,,,,0,0,0,0,0,0,0,0,0,18,18,9,,,,,,,,,,,,,,,,,,,,,,178.22660964890383,179.22322163300123,179.47511866304558,179.47511866304558,['c'],[0.3019330548122525],0.5,179.806596945622,180.31460732326377,180.31460732326377,181.32464422425255,181.57657026755624,181.57657026755624,['a'],[0.35241764842066914],181.95846345473547,182.2340023558354,182.39210379829166,183.6930163524812,1.0,183.70959035190754,184.71262565685902,,,,,,,,,,,,,,,,,,,,,,,,,,,,,,,,,,,,,,,,,,,,,,,Maddy,002,2023-12-14_09h51.06.876,Gen_Run2_Tone,2023.1.0,59.904901966537736,
1,1,60,img/Agent_AS.png,img/HS.png,img/confidence.png,img/lost.png,0,img/WhiteNoiseLong.wav,,,,,,,,,,,,,,,,,,,0,0,0,0,0,0,0,0,0,19,19,11,,,,,,,,,,,,,,,,,,,,,,184.71262565685902,185.7109090356389,185.9630939232884,185.9630939232884,['c'],[1.4610665466170758],0.5,187.4467891503591,187.96484866004903,187.96484866004903,188.96421946922783,189.22025118139572,189.22025118139572,['b'],[0.9637097450904548],190.21416862483602,190.48559958161786,190.64775634622202,191.9486566692358,0.5,191.96542067744303,192.46811080933549,,,,,,,,,,,,,,,,,,,,,,,,,,,,,,,,,,,,,,,,,,,,,,,Maddy,002,2023-12-14_09h51.06.876,Gen_Run2_Tone,2023.1.0,59.904901966537736,
1,1,59,img/Agent_AS.png,img/LW.png,img/confidence.png,img/lost.png,0,img/WhiteNoiseLong.wav,,,,,,,,,,,,,,,,,,,0,0,0,0,0,0,0,0,0,20,20,10,,,,,,,,,,,,,,,,,,,,,,192.46811080933549,193.46745061408728,193.72155777621083,193.72155777621083,['b'],[1.0064346985891461],1.0,194.75098012387753,195.75378844235092,195.75378844235092,196.75228742987383,197.0044387531234,197.0044387531234,['a'],[0.2675354921957478],197.30239584576339,197.57158595044166,197.73584049167113,199.0385899869725,0.5,199.0552899952745,199.5633618128486,,,,,,,,,,,,,,,,,,,,,,,,,,,,,,,,,,,,,,,,,,,,,,,Maddy,002,2023-12-14_09h51.06.876,Gen_Run2_Tone,2023.1.0,59.904901966537736,
1,1,66,img/Agent_AW.png,img/LM.png,img/confidence.png,img/lost.png,0,img/WhiteNoiseLong.wav,,,,,,,,,,,,,,,,,,,0,0,0,0,0,0,0,0,0,21,21,17,,,,,,,,,,,,,,,,,,,,,,199.5633618128486,200.5717025726335,200.8099129970651,200.8099129970651,['a'],[0.5011362127261236],0.5,201.33869150513783,201.84261498739943,201.84261498739943,202.8410843926249,203.09693349152803,203.09693349152803,['a'],[0.26616390189155936],203.39050758234225,203.66168737469707,203.8237935082987,205.126223003841,2.0,205.14294377644546,207.1455455883406,,,,,,,,,,,,,,,,,,,,,,,,,,,,,,,,,,,,,,,,,,,,,,,Maddy,002,2023-12-14_09h51.06.876,Gen_Run2_Tone,2023.1.0,59.904901966537736,
1,1,53,img/Agent_AM.png,img/HS.png,img/confidence.png,img/lost.png,0,img/WhiteNoiseLong.wav,,,,,,,,,,,,,,,,,,,0,0,0,0,0,0,0,0,0,22,22,4,,,,,,,,,,,,,,,,,,,,,,207.1455455883406,208.1436375360936,208.39586167701054,208.39586167701054,['a'],[0.27499134570825845],0.5,208.69382502755616,209.19664486590773,209.19664486590773,210.19503462687135,210.45246580487583,210.45246580487583,['a'],[0.2942664280999452],210.7790576190455,211.05059040687047,211.21228551836685,212.51309169037268,2.0,212.5299484274583,214.5340711629251,,,,,,,,,,,,,,,,,,,,,,,,,,,,,,,,,,,,,,,,,,,,,,,Maddy,002,2023-12-14_09h51.06.876,Gen_Run2_Tone,2023.1.0,59.904901966537736,
1,1,63,img/Agent_AS.png,img/AM.png,img/confidence.png,img/won.png,1,img/Silent.wav,,,,,,,,,,,,,,,,,,,0,0,0,0,0,0,0,0,0,23,23,14,,,,,,,,,,,,,,,,,,,,,,214.5340711629251,215.53323944774456,215.78640737489332,215.78640737489332,['c'],[0.46659870352596045],0.5,216.2826773148263,216.7850775978295,216.7850775978295,217.78433548274916,218.03761804080568,218.03761804080568,['b'],[0.9777627148432657],219.03461971366778,219.34934821014758,219.4847828567261,220.78734092100058,0.5,220.80268839676864,221.32007576467004,,,,,,,,,,,,,,,,,,,,,,,,,,,,,,,,,,,,,,,,,,,,,,,Maddy,002,2023-12-14_09h51.06.876,Gen_Run2_Tone,2023.1.0,59.904901966537736,
,,,,,,,,,1,1,31,img/Agent_HM.png,img/AS.png,img/confidence.png,img/won.png,1,img/Silent.wav,,,,,,,,,,0,0,0,0,,,,,,,,,0,0,0,0,0,0,0,6,,,,,,,,,,,,,,,,,,,,,,,,,,,,,227.29225938930176,,,,,,,221.32007576467004,222.3037071339786,222.55619467026554,222.55619467026554,['b'],[0.5628498131409287],1.5,223.13758825953119,224.64096759981476,224.64096759981476,225.63967935170513,225.89348358067218,225.89348358067218,['b'],[1.363540557678789],227.61323143786285,227.74099007092883,229.04513163655065,1.0,229.05910069530364,230.06206261366606,,,,,,,,,,,,,,,,,,,,,,,,,,Maddy,002,2023-12-14_09h51.06.876,Gen_Run2_Tone,2023.1.0,59.904901966537736,
,,,,,,,,,1,1,33,img/Agent_HS.png,img/HW.png,img/confidence.png,img/lost.png,0,img/WhiteNoiseLong.wav,,,,,,,,,,0,0,0,0,,,,,,,,,0,0,0,0,0,1,1,8,,,,,,,,,,,,,,,,,,,,,,,,,,,,,233.56155900505837,,,,,,,230.06206261366606,231.05997564597055,231.3121337958146,231.3121337958146,['b'],[0.3679525728803128],0.5,231.71026960480958,232.2130928565748,232.2130928565748,233.21154547971673,233.46415987820365,233.46415987820365,['c'],[0.07192543463315815],233.8355590624269,233.99548293948175,235.29643616918474,1.0,235.3130320708733,236.31592714472208,,,,,,,,,,,,,,,,,,,,,,,,,,Maddy,002,2023-12-14_09h51.06.876,Gen_Run2_Tone,2023.1.0,59.904901966537736,
,,,,,,,,,1,1,38,img/Agent_HS.png,img/AW.png,img/confidence.png,img/won.png,1,img/Silent.wav,,,,,,,,,,0,0,0,0,,,,,,,,,0,0,0,0,0,2,2,13,,,,,,,,,,,,,,,,,,,,,,,,,,,,,240.9835400627926,,,,,,,236.31592714472208,237.3145322300261,237.567005544086,237.567005544086,['b'],[0.3158315714681521],1.5,237.9166879763361,239.41814760211855,239.41814760211855,240.41684001183603,240.66895691724494,240.66895691724494,['c'],[0.2869505212875083],241.29804754606448,241.41740796163214,242.72491421876475,0.5,242.75205674557947,243.25642054749187,,,,,,,,,,,,,,,,,,,,,,,,,,Maddy,002,2023-12-14_09h51.06.876,Gen_Run2_Tone,2023.1.0,59.904901966537736,
,,,,,,,,,1,1,34,img/Agent_HS.png,img/LS.png,img/confidence.png,img/lost.png,0,img/WhiteNoiseLong.wav,,,,,,,,,,0,0,0,0,,,,,,,,,0,0,0,0,0,3,3,9,,,,,,,,,,,,,,,,,,,,,,,,,,,,,249.25773240451235,,,,,,,243.25642054749187,244.2695283088833,244.52185684093274,244.52185684093274,['b'],[1.0810765760252252],2.0,245.63682153995614,247.64094911096618,247.64094911096618,248.63957666733768,248.89312546525616,248.89312546525616,['c'],[0.33268233528360724],249.5377646718407,249.70663460607176,251.007620831253,2.0,251.02411717746872,253.02958334318828,,,,,,,,,,,,,,,,,,,,,,,,,,Maddy,002,2023-12-14_09h51.06.876,Gen_Run2_Tone,2023.1.0,59.904901966537736,
,,,,,,,,,1,1,35,img/Agent_HS.png,img/LW.png,img/confidence.png,img/lost.png,0,img/WhiteNoiseLong.wav,,,,,,,,,,0,0,0,0,,,,,,,,,0,0,0,0,0,4,4,10,,,,,,,,,,,,,,,,,,,,,,,,,,,,,258.2795831299154,,,,,,,253.02958334318828,254.02658729162067,254.27875482814852,254.27875482814852,['b'],[0.8670737822540104],1.5,255.17748981912155,256.6809550615726,256.6809550615726,257.6789727692958,257.9313761101803,257.9313761101803,['a'],[0.322641167556867],258.5487888789503,258.71325646894985,260.01386267656926,2.0,260.0306861336576,262.0344524604734,,,,,,,,,,,,,,,,,,,,,,,,,,Maddy,002,2023-12-14_09h51.06.876,Gen_Run2_Tone,2023.1.0,59.904901966537736,
,,,,,,,,,1,1,46,img/Agent_HW.png,img/AS.png,img/confidence.png,img/won.png,1,img/Silent.wav,,,,,,,,,,0,0,0,0,,,,,,,,,0,0,0,0,0,5,5,21,,,,,,,,,,,,,,,,,,,,,,,,,,,,,265.5346494381083,,,,,,,262.0344524604734,263.03259390150197,263.2853223622078,263.2853223622078,['c'],[0.3847930966876447],0.5,263.7000304639805,264.2026201869594,264.2026201869594,265.20122413442004,265.45362605305854,265.45362605305854,['c'],[0.05226805922575295],265.85050177399535,265.96850254591556,267.274744163733,2.0,267.28860769362655,269.29208161169663,,,,,,,,,,,,,,,,,,,,,,,,,,Maddy,002,2023-12-14_09h51.06.876,Gen_Run2_Tone,2023.1.0,59.904901966537736,
,,,,,,,,,1,1,48,img/Agent_HW.png,img/LW.png,img/confidence.png,img/lost.png,0,img/WhiteNoiseLong.wav,,,,,,,,,,0,0,0,0,,,,,,,,,0,0,0,0,0,6,6,23,,,,,,,,,,,,,,,,,,,,,,,,,,,,,276.1770221926272,,,,,,,269.29208161169663,270.28967720409855,270.54444882809184,270.54444882809184,['c'],[1.8914822306251153],2.0,272.45770157082006,274.45998309832066,274.45998309832066,275.4586189035326,275.71088770229835,275.71088770229835,['c'],[0.43712544022127986],276.45161417871714,276.6095597457141,277.91015713557135,1.5,277.94363850320224,279.4468997991644,,,,,,,,,,,,,,,,,,,,,,,,,,Maddy,002,2023-12-14_09h51.06.876,Gen_Run2_Tone,2023.1.0,59.904901966537736,
,,,,,,,,,1,1,39,img/Agent_HS.png,img/HM.png,img/confidence.png,img/won.png,1,img/Silent.wav,,,,,,,,,,0,0,0,0,,,,,,,,,0,0,0,0,0,7,7,14,,,,,,,,,,,,,,,,,,,,,,,,,,,,,283.64766455604695,,,,,,,279.4468997991644,280.44560387101956,280.69765250978526,280.69765250978526,['a'],[0.6577011725166813],0.5,281.3805491880048,281.887794126058,281.887794126058,282.89721463632304,283.1495519860182,283.1495519860182,['a'],[0.47426476131659],283.9622462793486,284.0811999396654,285.3854180207709,2.0,285.3995281638345,287.40239678439684,,,,,,,,,,,,,,,,,,,,,,,,,,Maddy,002,2023-12-14_09h51.06.876,Gen_Run2_Tone,2023.1.0,59.904901966537736,
,,,,,,,,,1,1,42,img/Agent_HW.png,img/HM.png,img/confidence.png,img/lost.png,0,img/WhiteNoiseLong.wav,,,,,,,,,,0,0,0,0,,,,,,,,,0,0,0,0,0,8,8,17,,,,,,,,,,,,,,,,,,,,,,,,,,,,,293.037789560738,,,,,,,287.40239678439684,288.401384162833,288.6560437156586,288.6560437156586,['c'],[0.8997507415479049],1.5,289.5852671515895,291.0884428296704,291.0884428296704,292.08705303492025,292.3393477180507,292.3393477180507,['c'],[0.6686585352290422],293.3129054931924,293.47125980660786,294.77241840504576,0.5,294.7891650622478,295.29169277637266,,,,,,,,,,,,,,,,,,,,,,,,,,Maddy,002,2023-12-14_09h51.06.876,Gen_Run2_Tone,2023.1.0,59.904901966537736,
,,,,,,,,,1,1,40,img/Agent_HS.png,img/LM.png,img/confidence.png,img/won.png,1,img/Silent.wav,,,,,,,,,,0,0,0,0,,,,,,,,,0,0,0,0,0,9,9,15,,,,,,,,,,,,,,,,,,,,,,,,,,,,,299.459272556589,,,,,,,295.29169277637266,296.2903982703574,296.54264317580964,296.54264317580964,['b'],[0.31156064046081156],1.0,296.8740173516562,297.87847032700665,297.87847032700665,298.87534655979834,299.12788017618004,299.12788017618004,['c'],[0.30416764912661165],299.7743059772765,299.8927132201614,301.1961658617947,0.5,301.21117228874937,301.7189073243644,,,,,,,,,,,,,,,,,,,,,,,,,,Maddy,002,2023-12-14_09h51.06.876,Gen_Run2_Tone,2023.1.0,59.904901966537736,
,,,,,,,,,1,1,28,img/Agent_HM.png,img/LS.png,img/confidence.png,img/lost.png,0,img/WhiteNoiseLong.wav,,,,,,,,,,0,0,0,0,,,,,,,,,0,0,0,0,0,10,10,3,,,,,,,,,,,,,,,,,,,,,,,,,,,,,305.66356726700906,,,,,,,301.7189073243644,302.7285118700238,302.96413498930633,302.96413498930633,['a'],[0.6038683854276314],0.5,303.5956490833778,304.0979731354164,304.0979731354164,305.0968811537605,305.3490233748453,305.3490233748453,['a'],[0.2878010096028447],305.93914229248185,306.09689073958435,307.39824532018974,1.0,307.4148759240052,308.4237710656598,,,,,,,,,,,,,,,,,,,,,,,,,,Maddy,002,2023-12-14_09h51.06.876,Gen_Run2_Tone,2023.1.0,59.904901966537736,
,,,,,,,,,1,1,32,img/Agent_HM.png,img/AW.png,img/confidence.png,img/won.png,1,img/Silent.wav,,,,,,,,,,0,0,0,0,,,,,,,,,0,0,0,0,0,11,11,7,,,,,,,,,,,,,,,,,,,,,,,,,,,,,312.91887677507475,,,,,,,308.4237710656598,309.41716342489235,309.6683994064806,309.6683994064806,['c'],[0.6498081281315535],1.0,310.3514630533755,311.3541934341192,311.3541934341192,312.35200292873196,312.6043200829299,312.6043200829299,['b'],[0.2904312659520656],313.23350372503046,313.3523913942743,314.65564862266183,2.0,314.6703242409276,316.6736084346194,,,,,,,,,,,,,,,,,,,,,,,,,,Maddy,002,2023-12-14_09h51.06.876,Gen_Run2_Tone,2023.1.0,59.904901966537736,
,,,,,,,,,1,1,44,img/Agent_HW.png,img/LM.png,img/confidence.png,img/lost.png,0,img/WhiteNoiseLong.wav,,,,,,,,,,0,0,0,0,,,,,,,,,0,0,0,0,0,12,12,19,,,,,,,,,,,,,,,,,,,,,,,,,,,,,321.9584156681085,,,,,,,316.6736084346194,317.6732267104089,317.9243079542648,317.9243079542648,['c'],[0.7157326417509466],0.5,318.6727027640445,319.17543101136107,319.17543101136107,320.1740323988488,320.4262505664956,320.4262505664956,['c'],[1.508693328476511],322.2351057152264,322.3920008295216,323.69342652114574,2.0,323.71001900942065,325.71635500586126,,,,,,,,,,,,,,,,,,,,,,,,,,Maddy,002,2023-12-14_09h51.06.876,Gen_Run2_Tone,2023.1.0,59.904901966537736,
,,,,,,,,,1,1,37,img/Agent_HS.png,img/AS.png,img/confidence.png,img/won.png,1,img/Silent.wav,,,,,,,,,,0,0,0,0,,,,,,,,,0,0,0,0,0,13,13,12,,,,,,,,,,,,,,,,,,,,,,,,,,,,,330.56473169650417,,,,,,,325.71635500586126,326.7315101972781,326.9808458065381,326.9808458065381,['c'],[0.4553244699491188],1.5,327.4624540657969,328.9656337262131,328.9656337262131,329.9644657979952,330.2166660457151,330.2166660457151,['c'],[0.3153508605901152],330.87878350005485,330.99833164894955,332.3055338350823,2.0,332.31794812134467,334.3226869631326,,,,,,,,,,,,,,,,,,,,,,,,,,Maddy,002,2023-12-14_09h51.06.876,Gen_Run2_Tone,2023.1.0,59.904901966537736,
,,,,,,,,,1,1,41,img/Agent_HW.png,img/AM.png,img/confidence.png,img/lost.png,0,img/WhiteNoiseLong.wav,,,,,,,,,,0,0,0,0,,,,,,,,,0,0,0,0,0,14,14,16,,,,,,,,,,,,,,,,,,,,,,,,,,,,,339.6711394581944,,,,,,,334.3226869631326,335.3348273296142,335.5870318438392,335.5870318438392,['c'],[0.41597842995543033],2.0,336.0350475178566,338.0388835334452,338.0388835334452,339.0374800853897,339.28970963077154,339.28970963077154,['c'],[0.3530704480363056],339.9312057280913,340.10491377506406,341.405993582448,1.0,341.4232508169953,342.42570073565,,,,,,,,,,,,,,,,,,,,,,,,,,Maddy,002,2023-12-14_09h51.06.876,Gen_Run2_Tone,2023.1.0,59.904901966537736,
,,,,,,,,,1,1,47,img/Agent_HW.png,img/AW.png,img/confidence.png,img/won.png,1,img/Silent.wav,,,,,,,,,,0,0,0,0,,,,,,,,,0,0,0,0,0,15,15,22,,,,,,,,,,,,,,,,,,,,,,,,,,,,,347.2447702785721,,,,,,,342.42570073565,343.42395197215956,343.67661273514386,343.67661273514386,['c'],[0.791158163221553],1.0,344.491254902794,345.49421084776986,345.49421084776986,346.4928381196223,346.7475195748266,346.7475195748266,['b'],[0.4633745275205001],347.56243082671426,347.693479342456,348.99654883751646,1.0,349.01217393088154,350.016078497516,,,,,,,,,,,,,,,,,,,,,,,,,,Maddy,002,2023-12-14_09h51.06.876,Gen_Run2_Tone,2023.1.0,59.904901966537736,
,,,,,,,,,1,1,30,img/Agent_HM.png,img/AM.png,img/confidence.png,img/won.png,1,img/Silent.wav,,,,,,,,,,0,0,0,0,,,,,,,,,0,0,0,0,0,16,16,5,,,,,,,,,,,,,,,,,,,,,,,,,,,,,354.2152867753757,,,,,,,350.016078497516,351.01331654354,351.2648978404468,351.2648978404468,['c'],[0.3759542750194669],1.0,351.6634546270361,352.6660382344853,352.6660382344853,353.66492804838344,353.91688993177377,353.91688993177377,['b'],[0.2712281479034573],354.51321400143206,354.6486583189806,355.9550987633411,0.5,355.9680569070624,356.47541448508855,,,,,,,,,,,,,,,,,,,,,,,,,,Maddy,002,2023-12-14_09h51.06.876,Gen_Run2_Tone,2023.1.0,59.904901966537736,
,,,,,,,,,1,1,36,img/Agent_HS.png,img/AM.png,img/confidence.png,img/won.png,1,img/Silent.wav,,,,,,,,,,0,0,0,0,,,,,,,,,0,0,0,0,0,17,17,11,,,,,,,,,,,,,,,,,,,,,,,,,,,,,360.66959862352815,,,,,,,356.47541448508855,357.46875848888885,357.72379834379535,357.72379834379535,['b'],[0.366031720652245],1.0,358.11809017288033,359.1205827580998,359.1205827580998,360.1191144566983,360.3716250330908,360.3716250330908,['c'],[0.2665134839480743],360.98451542214025,361.1032975626411,362.40575550252106,1.5,362.4209445427405,363.9266677040141,,,,,,,,,,,,,,,,,,,,,,,,,,Maddy,002,2023-12-14_09h51.06.876,Gen_Run2_Tone,2023.1.0,59.904901966537736,
,,,,,,,,,1,1,26,img/Agent_HM.png,img/HW.png,img/confidence.png,img/lost.png,0,img/WhiteNoiseLong.wav,,,,,,,,,,0,0,0,0,,,,,,,,,0,0,0,0,0,18,18,1,,,,,,,,,,,,,,,,,,,,,,,,,,,,,368.6418786748545,,,,,,,363.9266677040141,364.9394969944842,365.19189692195505,365.19189692195505,['c'],[0.37703431001864374],1.5,365.5898222422693,367.0929478582693,367.0929478582693,368.091987289954,368.3458139899885,368.3458139899885,['a'],[0.2766507937340066],368.90057562990114,369.0756290982943,370.37651576811913,1.5,370.3930909052724,371.89911557745654,,,,,,,,,,,,,,,,,,,,,,,,,,Maddy,002,2023-12-14_09h51.06.876,Gen_Run2_Tone,2023.1.0,59.904901966537736,
,,,,,,,,,1,1,27,img/Agent_HM.png,img/LM.png,img/confidence.png,img/lost.png,0,img/WhiteNoiseLong.wav,,,,,,,,,,0,0,0,0,,,,,,,,,0,0,0,0,0,19,19,2,,,,,,,,,,,,,,,,,,,,,,,,,,,,,377.26481990271714,,,,,,,371.89911557745654,372.9116106458241,373.1641075689113,373.1641075689113,['c'],[0.9468074969481677],1.0,374.12937037972733,375.1323630181141,375.1323630181141,376.1305366012966,376.3830420577433,376.3830420577433,['b'],[0.8575090589001775],377.53388314519543,377.6980816509575,378.99946552922484,1.5,379.0161240086891,380.5202113307314,,,,,,,,,,,,,,,,,,,,,,,,,,Maddy,002,2023-12-14_09h51.06.876,Gen_Run2_Tone,2023.1.0,59.904901966537736,
,,,,,,,,,1,1,45,img/Agent_HW.png,img/LS.png,img/confidence.png,img/lost.png,0,img/WhiteNoiseLong.wav,,,,,,,,,,0,0,0,0,,,,,,,,,0,0,0,0,0,20,20,20,,,,,,,,,,,,,,,,,,,,,,,,,,,,,384.3204515154939,,,,,,,380.5202113307314,381.5179548342712,381.7701018907828,381.7701018907828,['c'],[0.30765778047498316],0.5,382.1013386801351,382.60445348732173,382.60445348732173,383.60355947888456,383.856741912663,383.856741912663,['a'],[0.44226165069267154],384.59204773430247,384.7544878054876,386.055904394947,0.5,386.07249005662743,386.57365186919924,,,,,,,,,,,,,,,,,,,,,,,,,,Maddy,002,2023-12-14_09h51.06.876,Gen_Run2_Tone,2023.1.0,59.904901966537736,
,,,,,,,,,1,1,29,img/Agent_HM.png,img/LW.png,img/confidence.png,img/lost.png,0,img/WhiteNoiseLong.wav,,,,,,,,,,0,0,0,0,,,,,,,,,0,0,0,0,0,21,21,4,,,,,,,,,,,,,,,,,,,,,,,,,,,,,391.52513477683533,,,,,,,386.57365186919924,387.572143461206,387.824769521947,387.824769521947,['c'],[0.26897762482985854],1.5,388.1225303481333,389.62587100395467,389.62587100395467,390.62436373368837,390.8768805678701,390.8768805678701,['b'],[0.6249263643985614],391.79420370818116,391.9586650403915,393.25948202132713,2.0,393.27905349456705,395.2968304089736,,,,,,,,,,,,,,,,,,,,,,,,,,Maddy,002,2023-12-14_09h51.06.876,Gen_Run2_Tone,2023.1.0,59.904901966537736,
,,,,,,,,,1,1,25,img/Agent_HM.png,img/HS.png,img/confidence.png,img/lost.png,0,img/WhiteNoiseLong.wav,,,,,,,,,,0,0,0,0,,,,,,,,,0,0,0,0,0,22,22,0,,,,,,,,,,,,,,,,,,,,,,,,,,,,,401.7323487389367,,,,,,,395.2968304089736,396.2951988365967,396.5477503729053,396.5477503729053,['c'],[0.08499166718684137],2.0,396.6621356589021,398.66581921232864,398.66581921232864,399.664532386465,399.91684954066295,399.91684954066295,['c'],[1.784015767276287],401.9872108162381,402.1658838381525,403.4668228456285,1.5,403.48329558293335,404.9893259438686,,,,,,,,,,,,,,,,,,,,,,,,,,Maddy,002,2023-12-14_09h51.06.876,Gen_Run2_Tone,2023.1.0,59.904901966537736,
,,,,,,,,,1,1,43,img/Agent_HW.png,img/HS.png,img/confidence.png,img/lost.png,0,img/WhiteNoiseLong.wav,,,,,,,,,,0,0,0,0,,,,,,,,,0,0,0,0,0,23,23,18,,,,,,,,,,,,,,,,,,,,,,,,,,,,,409.2226132067153,,,,,,,404.9893259438686,405.9855564882746,406.2376933047781,406.2376933047781,['c'],[0.16228143661282957],0.5,406.41901771724224,406.921287155943,406.921287155943,407.92129540478345,408.1773538547568,408.1773538547568,['a'],[1.0156447199406102],409.4964926597895,409.67146449275316,,1.0,410.97365078830626,411.9859484524932,,,,,,,,,,,,,,,,,,,,,,,,,,Maddy,002,2023-12-14_09h51.06.876,Gen_Run2_Tone,2023.1.0,59.904901966537736,
,,,,,,,,,,,,,,,,,,1,1,8,img/Agent_LM.png,img/LW.png,img/confidence.png,img/won.png,1,img/Silent.wav,0,0,0,0,,,,,,,,,,,,,,,,,0,0,0,0,0,0,0,7,,,,,,,,,,,,,,,,,,,,,416.29421437485144,,,,,,,,,,,,,,,,,,,,,,,,,,,,411.9859484524932,412.9744668590138,413.228976225364,413.228976225364,['b'],[0.911155819427222],0.5,414.1581808878109,414.6606869841926,414.6606869841926,415.65985526912846,415.91409782669507,415.91409782669507,['c'],[0.3519019508967176],416.61481949023437,416.7430699275108,418.0460063026985,1.0,418.06127356516663,419.0638722481672,,,,,Maddy,002,2023-12-14_09h51.06.876,Gen_Run2_Tone,2023.1.0,59.904901966537736,
,,,,,,,,,,,,,,,,,,1,1,2,img/Agent_LM.png,img/AM.png,img/confidence.png,img/won.png,1,img/Silent.wav,0,0,0,0,,,,,,,,,,,,,,,,,0,0,0,0,0,1,1,1,,,,,,,,,,,,,,,,,,,,,424.2984810391208,,,,,,,,,,,,,,,,,,,,,,,,,,,,419.0638722481672,420.06196732481476,420.3147105765529,420.3147105765529,['b'],[0.8774011008208618],1.5,421.2133647853043,422.71683372557163,422.71683372557163,423.7160196460318,423.96975959057454,423.96975959057454,['c'],[0.307258136337623],424.6099142485764,424.73210716044997,426.03635453933384,1.0,426.0511120776646,427.0536240050569,,,,,Maddy,002,2023-12-14_09h51.06.876,Gen_Run2_Tone,2023.1.0,59.904901966537736,
,,,,,,,,,,,,,,,,,,1,1,24,img/Agent_LW.png,img/HM.png,img/confidence.png,img/won.png,1,img/Silent.wav,0,0,0,0,,,,,,,,,,,,,,,,,0,0,0,0,0,2,2,23,,,,,,,,,,,,,,,,,,,,,431.08853100740816,,,,,,,,,,,,,,,,,,,,,,,,,,,,427.0536240050569,428.0508316155756,428.3034113118192,428.3034113118192,['c'],[0.3827015778515488],0.5,428.71852417790797,429.22117192752194,429.22117192752194,430.22075720783323,430.473269775277,430.473269775277,['c'],[0.5946828260784969],431.40338864165824,431.5367545248708,432.8446934217354,0.5,432.87108899781015,433.376225066022,,,,,Maddy,002,2023-12-14_09h51.06.876,Gen_Run2_Tone,2023.1.0,59.904901966537736,
,,,,,,,,,,,,,,,,,,1,1,12,img/Agent_LS.png,img/AW.png,img/confidence.png,img/won.png,1,img/Silent.wav,0,0,0,0,,,,,,,,,,,,,,,,,0,0,0,0,0,3,3,11,,,,,,,,,,,,,,,,,,,,,439.20927106321324,,,,,,,,,,,,,,,,,,,,,,,,,,,,433.376225066022,434.3723680014955,434.6246490313206,434.6246490313206,['c'],[0.8824957824544981],1.5,435.5235637910664,437.0272130690282,437.0272130690282,438.02515283902176,438.2773263489362,438.2773263489362,['b'],[0.910642966395244],439.5218943875516,439.64268442017493,440.94587594189215,1.0,440.96142139087897,441.9658962683752,,,,,Maddy,002,2023-12-14_09h51.06.876,Gen_Run2_Tone,2023.1.0,59.904901966537736,
,,,,,,,,,,,,,,,,,,1,1,19,img/Agent_LW.png,img/LS.png,img/confidence.png,img/lost.png,0,img/WhiteNoiseLong.wav,0,0,0,0,,,,,,,,,,,,,,,,,0,0,0,0,0,4,4,18,,,,,,,,,,,,,,,,,,,,,449.96705281874165,,,,,,,,,,,,,,,,,,,,,,,,,,,,441.9658962683752,442.9621834170539,443.215490437462,443.215490437462,['b'],[0.4713708251947537],2.0,443.7126319146482,445.71631603699643,445.71631603699643,446.7148286778247,446.96709690766875,446.96709690766875,['c'],[2.976394253433682],450.24244437762536,450.4005751179764,451.7015090053901,2.0,451.7179379382869,453.72853405668866,,,,,Maddy,002,2023-12-14_09h51.06.876,Gen_Run2_Tone,2023.1.0,59.904901966537736,
,,,,,,,,,,,,,,,,,,1,1,1,img/Agent_LM.png,img/LS.png,img/confidence.png,img/lost.png,0,img/WhiteNoiseLong.wav,0,0,0,0,,,,,,,,,,,,,,,,,0,0,0,0,0,5,5,0,,,,,,,,,,,,,,,,,,,,,458.0560104926117,,,,,,,,,,,,,,,,,,,,,,,,,,,,453.72853405668866,454.7372741762083,454.98930461052805,454.98930461052805,['a'],[0.7059983893996105],0.5,455.7208623099141,456.2241076770006,456.2241076770006,457.2220130292699,457.4744399790652,457.4744399790652,['c'],[0.5582796469097957],458.3249613796361,458.48956948502456,459.7914684920106,1.0,459.80807434918825,460.8126809244277,,,,,Maddy,002,2023-12-14_09h51.06.876,Gen_Run2_Tone,2023.1.0,59.904901966537736,
,,,,,,,,,,,,,,,,,,1,1,10,img/Agent_LS.png,img/AM.png,img/confidence.png,img/won.png,1,img/Silent.wav,0,0,0,0,,,,,,,,,,,,,,,,,0,0,0,0,0,6,6,9,,,,,,,,,,,,,,,,,,,,,464.56077479210217,,,,,,,,,,,,,,,,,,,,,,,,,,,,460.8126809244277,461.80921809969004,462.06174887157977,462.06174887157977,['c'],[0.292320829234086],0.5,462.37636245263275,462.8795432507759,462.8795432507759,463.8770936166402,464.13008803268895,464.13008803268895,['c'],[0.4009592030197382],464.87526350212283,464.9941110647749,466.29667567124125,1.5,466.3120555736823,467.81747125054244,,,,,Maddy,002,2023-12-14_09h51.06.876,Gen_Run2_Tone,2023.1.0,59.904901966537736,
,,,,,,,,,,,,,,,,,,1,1,14,img/Agent_LS.png,img/HW.png,img/confidence.png,img/won.png,1,img/Silent.wav,0,0,0,0,,,,,,,,,,,,,,,,,0,0,0,0,0,7,7,13,,,,,,,,,,,,,,,,,,,,,473.01676087942906,,,,,,,,,,,,,,,,,,,,,,,,,,,,467.81747125054244,468.81385397259146,469.0659976158058,469.0659976158058,['c'],[0.39703586301766336],2.0,469.48126294405665,471.49095424520783,471.49095424520783,472.4999853511108,472.751828621258,472.751828621258,['c'],[0.24089102749712765],473.32873055082746,473.45056420944167,474.75511224602815,1.0,474.7689749225974,475.773416804499,,,,,Maddy,002,2023-12-14_09h51.06.876,Gen_Run2_Tone,2023.1.0,59.904901966537736,
,,,,,,,,,,,,,,,,,,1,1,4,img/Agent_LM.png,img/AW.png,img/confidence.png,img/won.png,1,img/Silent.wav,0,0,0,0,,,,,,,,,,,,,,,,,0,0,0,0,0,8,8,3,,,,,,,,,,,,,,,,,,,,,479.9887781041907,,,,,,,,,,,,,,,,,,,,,,,,,,,,475.773416804499,476.76963710889686,477.0217946898192,477.0217946898192,['b'],[0.35907051572576165],1.0,477.40300577972084,478.40720844396856,478.40720844396856,479.4047508452786,479.6570105418796,479.6570105418796,['c'],[0.3000631182221696],480.2999493405223,480.42205919460395,481.7256881915964,2.0,481.7402306899894,483.7448608740233,,,,,Maddy,002,2023-12-14_09h51.06.876,Gen_Run2_Tone,2023.1.0,59.904901966537736,
,,,,,,,,,,,,,,,,,,1,1,15,img/Agent_LS.png,img/HS.png,img/confidence.png,img/won.png,1,img/Silent.wav,0,0,0,0,,,,,,,,,,,,,,,,,0,0,0,0,0,9,9,14,,,,,,,,,,,,,,,,,,,,,491.4967008730164,,,,,,,,,,,,,,,,,,,,,,,,,,,,483.7448608740233,484.74200107122306,484.9957680379739,484.9957680379739,['c'],[0.5210322368657216],0.5,485.5428172557149,486.04522550315596,486.04522550315596,487.0436758507276,487.29607976053376,487.29607976053376,['c'],[4.176600930630229],491.8089185798308,491.93004738558085,493.23501412407495,0.5,493.24890723626595,493.75245582091156,,,,,Maddy,002,2023-12-14_09h51.06.876,Gen_Run2_Tone,2023.1.0,59.904901966537736,
,,,,,,,,,,,,,,,,,,1,1,21,img/Agent_LW.png,img/AM.png,img/confidence.png,img/won.png,1,img/Silent.wav,0,0,0,0,,,,,,,,,,,,,,,,,0,0,0,0,0,10,10,20,,,,,,,,,,,,,,,,,,,,,498.0679554458475,,,,,,,,,,,,,,,,,,,,,,,,,,,,493.75245582091156,494.76588955544867,495.0013292081421,495.0013292081421,['b'],[0.9055662048049271],0.5,495.93333337130025,496.43705774249975,496.43705774249975,497.43437713955063,497.68653500499204,497.68653500499204,['c'],[0.3471369403414428],498.37960426404607,498.5015977804549,499.8054369818419,1.5,499.81989983585663,501.3228496653028,,,,,Maddy,002,2023-12-14_09h51.06.876,Gen_Run2_Tone,2023.1.0,59.904901966537736,
,,,,,,,,,,,,,,,,,,1,1,7,img/Agent_LM.png,img/HM.png,img/confidence.png,img/won.png,1,img/Silent.wav,0,0,0,0,,,,,,,,,,,,,,,,,0,0,0,0,0,11,11,6,,,,,,,,,,,,,,,,,,,,,504.77283596922643,,,,,,,,,,,,,,,,,,,,,,,,,,,,501.3228496653028,502.3217434614198,502.57488550408743,502.57488550408743,['b'],[0.16687748732510954],0.5,502.7714080589358,503.2739903863985,503.2739903863985,504.2732937823748,504.5266045004828,504.5266045004828,['b'],[0.227342092897743],505.08493819169234,505.20654088160956,506.5145688095363,2.0,506.54121412767563,508.5446638679132,,,,,Maddy,002,2023-12-14_09h51.06.876,Gen_Run2_Tone,2023.1.0,59.904901966537736,
,,,,,,,,,,,,,,,,,,1,1,13,img/Agent_LS.png,img/HM.png,img/confidence.png,img/won.png,1,img/Silent.wav,0,0,0,0,,,,,,,,,,,,,,,,,0,0,0,0,0,12,12,12,,,,,,,,,,,,,,,,,,,,,513.9128496851772,,,,,,,,,,,,,,,,,,,,,,,,,,,,508.5446638679132,509.5426730423933,509.7951409521047,509.7951409521047,['c'],[0.2827140080044046],2.0,510.11146688775625,512.1160441651009,512.1160441651009,513.1122027450474,513.3643193661701,513.3643193661701,['c'],[0.5156363288406283],514.2249666986754,514.3465002687415,515.6547480720328,0.5,515.6808390083024,516.1832563580247,,,,,Maddy,002,2023-12-14_09h51.06.876,Gen_Run2_Tone,2023.1.0,59.904901966537736,
,,,,,,,,,,,,,,,,,,1,1,11,img/Agent_LS.png,img/AS.png,img/confidence.png,img/won.png,1,img/Silent.wav,0,0,0,0,,,,,,,,,,,,,,,,,0,0,0,0,0,13,13,10,,,,,,,,,,,,,,,,,,,,,520.368773479131,,,,,,,,,,,,,,,,,,,,,,,,,,,,516.1832563580247,517.1817141011124,517.4340449086158,517.4340449086158,['c'],[0.10568527318537235],1.0,517.5656982382061,518.5685281744227,518.5685281744227,519.5667683175998,519.8190652763005,519.8190652763005,['c'],[0.5217689475975931],520.6822504207958,520.8177684094524,,1.0,522.1245206047315,523.1388463566545,,,,,Maddy,002,2023-12-14_09h51.06.876,Gen_Run2_Tone,2023.1.0,59.904901966537736,
,,,,,,,,,,,,,,,,,,1,1,5,img/Agent_LM.png,img/HS.png,img/confidence.png,img/won.png,1,img/Silent.wav,0,0,0,0,,,,,,,,,,,,,,,,,0,0,0,0,0,14,14,4,,,,,,,,,,,,,,,,,,,,,527.9410634291125,,,,,,,,,,,,,,,,,,,,,,,,,,,,523.1388463566545,524.1366584112402,524.3890119743301,524.3890119743301,['b'],[0.6167733380571008],1.0,525.0374209210277,526.0424908559071,526.0424908559071,527.0553983685095,527.2914558342891,527.2914558342891,['c'],[0.6146033125696704],528.261615069001,528.3896237286506,529.6948999424931,0.5,529.7085225480841,530.2126061724266,,,,,Maddy,002,2023-12-14_09h51.06.876,Gen_Run2_Tone,2023.1.0,59.904901966537736,
,,,,,,,,,,,,,,,,,,1,1,16,img/Agent_LS.png,img/LW.png,img/confidence.png,img/won.png,1,img/Silent.wav,0,0,0,0,,,,,,,,,,,,,,,,,0,0,0,0,0,15,15,15,,,,,,,,,,,,,,,,,,,,,535.6282515182393,,,,,,,,,,,,,,,,,,,,,,,,,,,,530.2126061724266,531.2085582457948,531.4607994534308,531.4607994534308,['c'],[0.49990257783792913],2.0,531.9923276844202,533.9973595037591,533.9973595037591,534.994509940967,535.2469070240622,535.2469070240622,['c'],[0.3510176136624068],535.9395052433247,536.0618676839629,537.3654804676771,1.5,537.3799003706081,538.8831195688108,,,,,Maddy,002,2023-12-14_09h51.06.876,Gen_Run2_Tone,2023.1.0,59.904901966537736,
,,,,,,,,,,,,,,,,,,1,1,6,img/Agent_LM.png,img/HW.png,img/confidence.png,img/won.png,1,img/Silent.wav,0,0,0,0,,,,,,,,,,,,,,,,,0,0,0,0,0,16,16,5,,,,,,,,,,,,,,,,,,,,,543.1170212312136,,,,,,,,,,,,,,,,,,,,,,,,,,,,538.8831195688108,539.8813764941879,540.133574466221,540.133574466221,['c'],[0.9105266287224367],0.5,541.0659634824842,541.5681973657338,541.5681973657338,542.5668860775186,542.8187978987116,542.8187978987116,['c'],[0.2652516891248524],543.431581052253,543.5507164725102,544.8601339106681,2.0,544.8860897358973,546.8889000454219,,,,,Maddy,002,2023-12-14_09h51.06.876,Gen_Run2_Tone,2023.1.0,59.904901966537736,
,,,,,,,,,,,,,,,,,,1,1,18,img/Agent_LW.png,img/LM.png,img/confidence.png,img/won.png,1,img/Silent.wav,0,0,0,0,,,,,,,,,,,,,,,,,0,0,0,0,0,17,17,17,,,,,,,,,,,,,,,,,,,,,551.2233015618986,,,,,,,,,,,,,,,,,,,,,,,,,,,,546.8889000454219,547.8868247399805,548.139414107427,548.139414107427,['c'],[0.42756043234840035],1.0,548.5877207679441,549.5905891041039,549.5905891041039,550.5903990953229,550.8459611899452,550.8459611899452,['b'],[0.34483123500831425],551.527075824677,551.6576208739541,552.9646211046493,2.0,552.9908886807971,554.9959480912657,,,,,Maddy,002,2023-12-14_09h51.06.876,Gen_Run2_Tone,2023.1.0,59.904901966537736,
,,,,,,,,,,,,,,,,,,1,1,22,img/Agent_LW.png,img/AS.png,img/confidence.png,img/won.png,1,img/Silent.wav,0,0,0,0,,,,,,,,,,,,,,,,,0,0,0,0,0,18,18,21,,,,,,,,,,,,,,,,,,,,,559.2452248205664,,,,,,,,,,,,,,,,,,,,,,,,,,,,554.9959480912657,555.9928920218954,556.2453775671311,556.2453775671311,['a'],[0.29844861244782805],1.0,556.5799491811777,557.5962683185935,557.5962683185935,558.5948435371974,558.8471296869684,558.8471296869684,['b'],[0.3798244239296764],559.5570710431784,559.6788816618034,560.9848971464671,1.5,560.99787633901,562.4996414580382,,,,,Maddy,002,2023-12-14_09h51.06.876,Gen_Run2_Tone,2023.1.0,59.904901966537736,
,,,,,,,,,,,,,,,,,,1,1,3,img/Agent_LM.png,img/AS.png,img/confidence.png,img/won.png,1,img/Silent.wav,0,0,0,0,,,,,,,,,,,,,,,,,0,0,0,0,0,19,19,2,,,,,,,,,,,,,,,,,,,,,566.4003038434312,,,,,,,,,,,,,,,,,,,,,,,,,,,,562.4996414580382,563.4983864898095,563.750568817486,563.750568817486,['b'],[0.5575090873753652],0.5,564.3320764688542,564.8347245029872,564.8347245029872,565.8335648236098,566.0859437022591,566.0859437022591,['c'],[0.29670383129268885],566.7112540665548,566.8343842222355,568.1366342334077,1.0,568.1519612291595,569.1559334935155,,,,,Maddy,002,2023-12-14_09h51.06.876,Gen_Run2_Tone,2023.1.0,59.904901966537736,
,,,,,,,,,,,,,,,,,,1,1,20,img/Agent_LW.png,img/HW.png,img/confidence.png,img/lost.png,0,img/WhiteNoiseLong.wav,0,0,0,0,,,,,,,,,,,,,,,,,0,0,0,0,0,20,20,19,,,,,,,,,,,,,,,,,,,,,573.9390157146845,,,,,,,,,,,,,,,,,,,,,,,,,,,,569.1559334935155,570.1534955216339,570.4053587027593,570.4053587027593,['a'],[1.3736215474782512],0.5,571.8041845737025,572.3069634520216,572.3069634520216,573.3054732484743,573.557743184967,573.557743184967,['c'],[0.34995578322559595],574.2146217445843,574.3725661738542,575.6738573233597,1.5,575.6904688694049,577.1938982720021,,,,,Maddy,002,2023-12-14_09h51.06.876,Gen_Run2_Tone,2023.1.0,59.904901966537736,
,,,,,,,,,,,,,,,,,,1,1,23,img/Agent_LW.png,img/AW.png,img/confidence.png,img/won.png,1,img/Silent.wav,0,0,0,0,,,,,,,,,,,,,,,,,0,0,0,0,0,21,21,22,,,,,,,,,,,,,,,,,,,,,581.5447204724187,,,,,,,,,,,,,,,,,,,,,,,,,,,,577.1938982720021,578.1921554817818,578.444756795885,578.444756795885,['a'],[0.4590447166701779],1.0,578.9259324155282,579.9289563426282,579.9289563426282,580.9275452145375,581.1798930887599,581.1798930887599,['a'],[0.3417950766161084],581.8500426808605,581.9783716247882,583.284878913546,1.0,583.2970192799112,584.2993648075499,,,,,Maddy,002,2023-12-14_09h51.06.876,Gen_Run2_Tone,2023.1.0,59.904901966537736,
,,,,,,,,,,,,,,,,,,1,1,17,img/Agent_LW.png,img/HS.png,img/confidence.png,img/lost.png,0,img/WhiteNoiseLong.wav,0,0,0,0,,,,,,,,,,,,,,,,,0,0,0,0,0,22,22,16,,,,,,,,,,,,,,,,,,,,,588.8498762809904,,,,,,,,,,,,,,,,,,,,,,,,,,,,584.2993648075499,585.2973512264434,585.549561714055,585.549561714055,['a'],[0.7823071104940027],1.0,586.3646757748211,587.3677238797536,587.3677238797536,588.3664600937627,588.6186535147717,588.6186535147717,['a'],[0.2069374822312966],589.1237295651808,589.283368429006,590.5844530720497,0.5,590.6010794092435,591.1036910343682,,,,,Maddy,002,2023-12-14_09h51.06.876,Gen_Run2_Tone,2023.1.0,59.904901966537736,
,,,,,,,,,,,,,,,,,,1,1,9,img/Agent_LS.png,img/LM.png,img/confidence.png,img/lost.png,0,img/WhiteNoiseLong.wav,0,0,0,0,,,,,,,,,,,,,,,,,0,0,0,0,0,23,23,8,,,,,,,,,,,,,,,,,,,,,594.4534784265561,,,,,,,,,,,,,,,,,,,,,,,,,,,,591.1036910343682,592.1032333634794,592.3587661604397,592.3587661604397,['c'],[0.26027220755349845],0.5,592.652443220024,593.1553793960484,593.1553793960484,594.1539062591037,594.4057691558264,594.4057691558264,['c'],[0.022128058481030166],594.7233810640173,594.8873662366066,596.1885160172824,0.5,596.2050513322465,596.7054135720246,,,,,Maddy,002,2023-12-14_09h51.06.876,Gen_Run2_Tone,2023.1.0,59.904901966537736,
,,,,,,,,,,,,,,,,,,,,,,,,,,,0,0,0,0,,,,,,,,,,,,,,,,,,,,,,,,,,,,,,,,,,,,,,,,,,,,,,,,,,,,,,,,,,,,,,,,,,,,,,,,,,,,,,,,,,,,,,,,,,,,,,,,,,Maddy,002,2023-12-14_09h51.06.876,Gen_Run2_Tone,2023.1.0,59.904901966537736,
,,,,,,,,,,,,,,,,,,,,,,,,,,,,,,,,,,,,,,,,,,,,,,,,,,,,,,,,,,,,,,,,,,,,,,,,,,,,,,,,,,,,,,,,,,,,,,,,,,,,,,,,,,,,,,,,,,,,,,,,,,,,596.7054135720246,596.7054135720246,a,1.8851530608953908,Maddy,002,2023-12-14_09h51.06.876,Gen_Run2_Tone,2023.1.0,59.904901966537736,
