RunNumL,SetNumL,BattleNumL,FirstStimL,SecondStimL,ConfidenceL,OutcomeL,OutcomeNumL,ToneL,RunNumA,SetNumA,BattleNumA,FirstStimA,SecondStimA,ConfidenceA,OutcomeA,OutcomeNumA,ToneA,RunNumH,SetNumH,BattleNumH,FirstStimH,SecondStimH,ConfidenceH,OutcomeH,OutcomeNumH,ToneH,FullLoop.thisRepN,FullLoop.thisTrialN,FullLoop.thisN,FullLoop.thisIndex,loopL.thisRepN,loopL.thisTrialN,loopL.thisN,loopL.thisIndex,loop1.thisRepN,loop1.thisTrialN,loop1.thisN,loop1.thisIndex,loopA.thisRepN,loopA.thisTrialN,loopA.thisN,loopA.thisIndex,loop2.thisRepN,loop2.thisTrialN,loop2.thisN,loop2.thisIndex,loopH.thisRepN,loopH.thisTrialN,loopH.thisN,loopH.thisIndex,loop3.thisRepN,loop3.thisTrialN,loop3.thisN,loop3.thisIndex,trigger_image.started,trigger_resp.started,trigger_resp.keys,trigger_resp.rt,wait.started,firststim_img_loop1.started,isi_conf_stim1_loop1.started,conf_img_stim1_loop1.started,conf_resp_stim1_loop1.started,conf_resp_stim1_loop1.keys,conf_resp_stim1_loop1.rt,isi_stim_1,isi_stim_loop1.started,isi_stim_loop1.stopped,secondstim_img_loop1.started,isi_conf_stim2_loop1.started,conf_img_stim2_loop1.started,conf_resp_stim2_loop1.started,conf_resp_stim2_loop1.keys,conf_resp_stim2_loop1.rt,isi_outcome.started,outcome_img_loop1.started,Tone_loop1.started,Tone_loop1.stopped,jitter_iti_1,iti_loop1.started,iti_loop1.stopped,firststim_img_loop2.started,isi_conf_stim1_loop2.started,conf_img_stim1_loop2.started,conf_resp_stim1_loop2.started,conf_resp_stim1_loop2.keys,conf_resp_stim1_loop2.rt,isi_stim_2,isi_stim_loop2.started,isi_stim_loop2.stopped,secondstim_img_loop2.started,isi_conf_loop2.started,conf_img_stim2_loop2.started,conf_resp_stim2_loop2.started,conf_resp_stim2_loop2.keys,conf_resp_stim2_loop2.rt,outcome_image_loop2.started,Tone_loop2.started,Tone_loop2.stopped,jitter_iti_2,iti_loop2.started,iti_loop2.stopped,firststim_img_loop3.started,isi_conf_stim1_loop3.started,conf_img_stim1_loop3.started,conf_resp_stim1_loop3.started,conf_resp_stim1_loop3.keys,conf_resp_stim1_loop3.rt,isi_stim_3,isi_stim_loop3.started,isi_stim_loop3.stopped,secondstim_img_loop3.started,isi_conf_stim2_loop3.started,conf_img_stim2_loop3.started,conf_resp_stim2_loop3.started,conf_resp_stim2_loop3.keys,conf_resp_stim2_loop3.rt,outcome_img_loop3.started,Tone_loop3.started,Tone_loop3.stopped,jitter_iti_3,iti_loop3.started,iti_loop3.stopped,completion_prompt.started,completion_prompt_resp.started,completion_prompt_resp.keys,completion_prompt_resp.rt,participant,run,date,expName,psychopyVersion,frameRate,
,,,,,,,,,,,,,,,,,,,,,,,,,,,,,,,,,,,,,,,,,,,,,,,,,,,,,,,21.887434872915037,21.887434872915037,t,32.19580916862469,,,,,,,,,,,,,,,,,,,,,,,,,,,,,,,,,,,,,,,,,,,,,,,,,,,,,,,,,,,,,,,,,,,,,,Maddy,001,2023-12-14_09h39.59.070,Gen_Run1_Tone,2023.1.0,59.960073546427516,
1,1,8,img/Agent_LM.png,img/LW.png,img/confidence.png,img/won.png,1,img/Silent.wav,,,,,,,,,,,,,,,,,,,0,0,0,0,0,0,0,0,0,0,0,7,,,,,,,,,,,,,,,,,,,,,54.11736483999994,59.13146246748511,60.1193135677604,60.37207445502281,60.37207445502281,['b'],[2.6132672778330743],2.0,63.0046759796096,65.01028066978324,65.01028066978324,66.00684913387522,66.26016212755349,66.26016212755349,['a'],[3.5650741674471647],69.84293441823684,70.16509715060238,70.2767844256945,71.58511468942743,1.0,71.61079318146221,72.614029304008,,,,,,,,,,,,,,,,,,,,,,,,,,,,,,,,,,,,,,,,,,,,,,,Maddy,001,2023-12-14_09h39.59.070,Gen_Run1_Tone,2023.1.0,59.960073546427516,
1,1,9,img/Agent_LS.png,img/HS.png,img/confidence.png,img/lost.png,0,img/WhiteNoiseLong.wav,,,,,,,,,,,,,,,,,,,0,0,0,0,0,0,0,0,0,1,1,8,,,,,,,,,,,,,,,,,,,,,,72.614029304008,73.61360946425702,73.86687723128125,73.86687723128125,['c'],[1.4898508858168498],1.0,75.3801082993159,76.3833660397213,76.3833660397213,77.3815293830121,77.63405247486662,77.63405247486662,['c'],[0.6792080047307536],78.332119704457,78.60801216971595,78.76591396073346,80.06697866413742,1.5,80.08363117021509,81.58703611057717,,,,,,,,,,,,,,,,,,,,,,,,,,,,,,,,,,,,,,,,,,,,,,,Maddy,001,2023-12-14_09h39.59.070,Gen_Run1_Tone,2023.1.0,59.960073546427516,
1,1,16,img/Agent_LS.png,img/LW.png,img/confidence.png,img/won.png,1,img/Silent.wav,,,,,,,,,,,,,,,,,,,0,0,0,0,0,0,0,0,0,2,2,15,,,,,,,,,,,,,,,,,,,,,,81.58703611057717,82.58525918715168,82.83765655464958,82.83765655464958,['c'],[1.1155600409256294],2.0,83.98765028268099,85.99006407684647,85.99006407684647,86.98860686877742,87.24087680527009,87.24087680527009,['b'],[0.702313129324466],87.97401999705471,88.29866649676114,88.42299390698318,89.72568904503714,1.0,89.74073216528632,90.74342926603276,,,,,,,,,,,,,,,,,,,,,,,,,,,,,,,,,,,,,,,,,,,,,,,Maddy,001,2023-12-14_09h39.59.070,Gen_Run1_Tone,2023.1.0,59.960073546427516,
1,1,15,img/Agent_LS.png,img/LM.png,img/confidence.png,img/won.png,1,img/Silent.wav,,,,,,,,,,,,,,,,,,,0,0,0,0,0,0,0,0,0,3,3,14,,,,,,,,,,,,,,,,,,,,,,90.74342926603276,91.74211769341491,91.99403093673754,91.99403093673754,['c'],[0.4519668895518407],0.5,92.47568271611817,92.97854152333457,92.97854152333457,93.97681466210634,94.22918557631783,94.22918557631783,['b'],[0.911038059508428],95.16098806844093,95.47533512522932,95.59458748050966,96.90545925381593,0.5,96.92978123109788,97.43669365381356,,,,,,,,,,,,,,,,,,,,,,,,,,,,,,,,,,,,,,,,,,,,,,,Maddy,001,2023-12-14_09h39.59.070,Gen_Run1_Tone,2023.1.0,59.960073546427516,
1,1,14,img/Agent_LS.png,img/HW.png,img/confidence.png,img/won.png,1,img/Silent.wav,,,,,,,,,,,,,,,,,,,0,0,0,0,0,0,0,0,0,4,4,13,,,,,,,,,,,,,,,,,,,,,,97.43669365381356,98.4468138969969,98.6989555490436,98.6989555490436,['c'],[1.15909992728848],0.5,99.88231032481417,100.38740344182588,100.38740344182588,101.3988611419918,101.65153157606255,101.65153157606255,['c'],[0.6107923280214891],102.28284314577468,102.59535127028357,102.71637912674342,104.02452165726572,1.5,104.05045472690836,105.55411367595661,,,,,,,,,,,,,,,,,,,,,,,,,,,,,,,,,,,,,,,,,,,,,,,Maddy,001,2023-12-14_09h39.59.070,Gen_Run1_Tone,2023.1.0,59.960073546427516,
1,1,13,img/Agent_LS.png,img/HM.png,img/confidence.png,img/won.png,1,img/Silent.wav,,,,,,,,,,,,,,,,,,,0,0,0,0,0,0,0,0,0,5,5,12,,,,,,,,,,,,,,,,,,,,,,105.55411367595661,106.55260754341725,106.80501116870437,106.80501116870437,['c'],[1.6482610356761143],2.0,108.4707419188926,110.4741734546842,110.4741734546842,111.47281494888011,111.72505359642673,111.72505359642673,['c'],[1.5640828791074455],113.30778663384262,113.62019178946503,113.74102025046014,115.04497604561038,1.5,115.05909699748736,116.56183463148773,,,,,,,,,,,,,,,,,,,,,,,,,,,,,,,,,,,,,,,,,,,,,,,Maddy,001,2023-12-14_09h39.59.070,Gen_Run1_Tone,2023.1.0,59.960073546427516,
1,1,20,img/Agent_LW.png,img/AM.png,img/confidence.png,img/won.png,1,img/Silent.wav,,,,,,,,,,,,,,,,,,,0,0,0,0,0,0,0,0,0,6,6,19,,,,,,,,,,,,,,,,,,,,,,116.56183463148773,117.56018798355944,117.8127073777141,117.8127073777141,['a'],[0.5911079304059967],0.5,118.42772910778876,118.9302804308245,118.9302804308245,119.9287677560933,120.18102745257784,120.18102745257784,['b'],[1.2643807206768543],121.46398579829838,121.76990533981007,121.89664227745962,123.20488692354411,1.5,123.23078102432191,124.73448548442684,,,,,,,,,,,,,,,,,,,,,,,,,,,,,,,,,,,,,,,,,,,,,,,Maddy,001,2023-12-14_09h39.59.070,Gen_Run1_Tone,2023.1.0,59.960073546427516,
1,1,7,img/Agent_LM.png,img/HW.png,img/confidence.png,img/won.png,1,img/Silent.wav,,,,,,,,,,,,,,,,,,,0,0,0,0,0,0,0,0,0,7,7,6,,,,,,,,,,,,,,,,,,,,,,124.73448548442684,125.7329483475769,125.98524047061801,125.98524047061801,['b'],[1.8499738454120234],0.5,127.86927282111719,128.37378680962138,128.37378680962138,129.37002986948937,129.62480433797464,129.62480433797464,['b'],[1.474236316862516],131.1202289094217,131.43158133677207,131.55377968142275,132.8571768279653,1.5,132.87187577073928,134.3746557869017,,,,,,,,,,,,,,,,,,,,,,,,,,,,,,,,,,,,,,,,,,,,,,,Maddy,001,2023-12-14_09h39.59.070,Gen_Run1_Tone,2023.1.0,59.960073546427516,
1,1,3,img/Agent_LM.png,img/AM.png,img/confidence.png,img/won.png,1,img/Silent.wav,,,,,,,,,,,,,,,,,,,0,0,0,0,0,0,0,0,0,8,8,2,,,,,,,,,,,,,,,,,,,,,,134.3746557869017,135.37438641814515,135.62589802616276,135.62589802616276,['a'],[0.3514499688753858],1.0,136.00715235155076,137.00995156774297,137.00995156774297,138.00840646633878,138.2607054162072,138.2607054162072,['a'],[0.24918940488714725],138.54364356631413,138.86101938574575,138.99254494297784,140.295430658618,1.0,140.3100601970218,141.3131398751866,,,,,,,,,,,,,,,,,,,,,,,,,,,,,,,,,,,,,,,,,,,,,,,Maddy,001,2023-12-14_09h39.59.070,Gen_Run1_Tone,2023.1.0,59.960073546427516,
1,1,10,img/Agent_LS.png,img/AM.png,img/confidence.png,img/won.png,1,img/Silent.wav,,,,,,,,,,,,,,,,,,,0,0,0,0,0,0,0,0,0,9,9,9,,,,,,,,,,,,,,,,,,,,,,141.3131398751866,142.31152536952868,142.56388319924008,142.56388319924008,['c'],[0.48220360127743334],0.5,143.0788684352301,143.58133527822793,143.58133527822793,144.5797876168508,144.83216052222997,144.83216052222997,['b'],[1.7800107918446884],146.63170211180113,146.94280849478673,147.0648284929106,148.36705572006758,2.0,148.38265208457597,150.38608447369188,,,,,,,,,,,,,,,,,,,,,,,,,,,,,,,,,,,,,,,,,,,,,,,Maddy,001,2023-12-14_09h39.59.070,Gen_Run1_Tone,2023.1.0,59.960073546427516,
1,1,23,img/Agent_LW.png,img/HM.png,img/confidence.png,img/won.png,1,img/Silent.wav,,,,,,,,,,,,,,,,,,,0,0,0,0,0,0,0,0,0,10,10,22,,,,,,,,,,,,,,,,,,,,,,150.38608447369188,151.38465201237705,151.63726157532074,151.63726157532074,['a'],[0.6428770743077621],0.5,152.30192850378808,152.80467296449933,152.80467296449933,153.80297340988182,154.0553983685095,154.0553983685095,['a'],[1.3729843923356384],155.45454139483627,155.76523789355997,155.88783047811594,157.194477116107,0.5,157.20681574021,157.710393622634,,,,,,,,,,,,,,,,,,,,,,,,,,,,,,,,,,,,,,,,,,,,,,,Maddy,001,2023-12-14_09h39.59.070,Gen_Run1_Tone,2023.1.0,59.960073546427516,
1,1,4,img/Agent_LM.png,img/AS.png,img/confidence.png,img/won.png,1,img/Silent.wav,,,,,,,,,,,,,,,,,,,0,0,0,0,0,0,0,0,0,11,11,3,,,,,,,,,,,,,,,,,,,,,,157.710393622634,158.7065189225832,158.9589418900432,158.9589418900432,['b'],[1.012172224232927],1.0,159.99084999633487,160.99378546141088,160.99378546141088,161.99357155931648,162.24842424981762,162.24842424981762,['a'],[1.0155477244406939],163.29342959308997,163.60569906875025,163.7268298940966,165.03493772237562,1.0,165.06105511193164,166.0662755179219,,,,,,,,,,,,,,,,,,,,,,,,,,,,,,,,,,,,,,,,,,,,,,,Maddy,001,2023-12-14_09h39.59.070,Gen_Run1_Tone,2023.1.0,59.960073546427516,
1,1,17,img/Agent_LW.png,img/HS.png,img/confidence.png,img/lost.png,0,img/WhiteNoiseLong.wav,,,,,,,,,,,,,,,,,,,0,0,0,0,0,0,0,0,0,12,12,16,,,,,,,,,,,,,,,,,,,,,,166.0662755179219,167.06291509314906,167.31522627407685,167.31522627407685,['a'],[0.5590504908468574],0.5,167.89694014762063,168.3990889819106,168.3990889819106,169.397594796028,169.64996627916116,169.64996627916116,['c'],[0.8410323393763974],170.516226550797,170.78892100905068,170.94862276348286,172.249741511303,2.0,172.26621965307277,174.26995611318853,,,,,,,,,,,,,,,,,,,,,,,,,,,,,,,,,,,,,,,,,,,,,,,Maddy,001,2023-12-14_09h39.59.070,Gen_Run1_Tone,2023.1.0,59.960073546427516,
1,1,1,img/Agent_LM.png,img/HM.png,img/confidence.png,img/lost.png,0,img/WhiteNoiseLong.wav,,,,,,,,,,,,,,,,,,,0,0,0,0,0,0,0,0,0,13,13,0,,,,,,,,,,,,,,,,,,,,,,174.26995611318853,175.26861126057338,175.5207924504066,175.5207924504066,['a'],[3.3094705439871177],0.5,178.8541577362921,179.35714084573556,179.35714084573556,180.3554410067154,180.6080901074456,180.6080901074456,['a'],[0.27371788874734193],180.90583671140485,181.17726254812442,181.3394054034492,182.64039785799105,2.0,182.6571433773497,184.66067560645752,,,,,,,,,,,,,,,,,,,,,,,,,,,,,,,,,,,,,,,,,,,,,,,Maddy,001,2023-12-14_09h39.59.070,Gen_Run1_Tone,2023.1.0,59.960073546427516,
1,1,18,img/Agent_LW.png,img/LM.png,img/confidence.png,img/lost.png,0,img/WhiteNoiseLong.wav,,,,,,,,,,,,,,,,,,,0,0,0,0,0,0,0,0,0,14,14,17,,,,,,,,,,,,,,,,,,,,,,184.66067560645752,185.65907646063715,185.91160922369454,185.91160922369454,['a'],[0.3224969543516636],0.5,186.2596515500918,186.76224098866805,186.76224098866805,187.76067626068834,188.01302612596191,188.01302612596191,['a'],[0.796015618252568],188.82831511995755,189.09735958906822,189.26194212303963,190.56284554651938,1.0,190.57937005267013,191.58218462881632,,,,,,,,,,,,,,,,,,,,,,,,,,,,,,,,,,,,,,,,,,,,,,,Maddy,001,2023-12-14_09h39.59.070,Gen_Run1_Tone,2023.1.0,59.960073546427516,
1,1,6,img/Agent_LM.png,img/HS.png,img/confidence.png,img/won.png,1,img/Silent.wav,,,,,,,,,,,,,,,,,,,0,0,0,0,0,0,0,0,0,15,15,5,,,,,,,,,,,,,,,,,,,,,,191.58218462881632,192.58056955423672,192.83314441493712,192.83314441493712,['a'],[0.8346937829628587],0.5,193.69813378958497,194.20106456126086,194.20106456126086,195.1994290065486,195.45180816971697,195.45180816971697,['c'],[0.2681237229844555],195.75380181125365,196.05592203047127,196.18483582020272,197.48597447911743,0.5,197.50115271052346,198.00428600644227,,,,,,,,,,,,,,,,,,,,,,,,,,,,,,,,,,,,,,,,,,,,,,,Maddy,001,2023-12-14_09h39.59.070,Gen_Run1_Tone,2023.1.0,59.960073546427516,
1,1,5,img/Agent_LM.png,img/AW.png,img/confidence.png,img/won.png,1,img/Silent.wav,,,,,,,,,,,,,,,,,,,0,0,0,0,0,0,0,0,0,16,16,4,,,,,,,,,,,,,,,,,,,,,,198.00428600644227,199.00215864775237,199.25435718870722,199.25435718870722,['a'],[0.6074819654459134],1.0,199.88606612710282,200.8891162230866,200.8891162230866,201.88759899733122,202.14002992922906,202.14002992922906,['c'],[0.14802366693038493],202.32160408375785,202.63234865362756,202.7549053980969,204.05704501643777,0.5,204.07246018992737,204.57510196615476,,,,,,,,,,,,,,,,,,,,,,,,,,,,,,,,,,,,,,,,,,,,,,,Maddy,001,2023-12-14_09h39.59.070,Gen_Run1_Tone,2023.1.0,59.960073546427516,
1,1,19,img/Agent_LW.png,img/LS.png,img/confidence.png,img/lost.png,0,img/WhiteNoiseLong.wav,,,,,,,,,,,,,,,,,,,0,0,0,0,0,0,0,0,0,17,17,18,,,,,,,,,,,,,,,,,,,,,,204.57510196615476,205.573461007094,205.82590587681625,205.82590587681625,['a'],[0.14339547394774854],1.0,205.9905860320432,206.99342364817858,206.99342364817858,207.9920304401312,208.2441968389321,208.2441968389321,['a'],[1.2116640929598361],209.47602205816656,209.75006506661884,209.90986609223765,211.21096350671723,1.0,211.22760150616523,212.23070450883824,,,,,,,,,,,,,,,,,,,,,,,,,,,,,,,,,,,,,,,,,,,,,,,Maddy,001,2023-12-14_09h39.59.070,Gen_Run1_Tone,2023.1.0,59.960073546427516,
1,1,24,img/Agent_LW.png,img/HW.png,img/confidence.png,img/won.png,1,img/Silent.wav,,,,,,,,,,,,,,,,,,,0,0,0,0,0,0,0,0,0,18,18,23,,,,,,,,,,,,,,,,,,,,,,212.23070450883824,213.22867841215339,213.48101234866772,213.48101234866772,['a'],[0.6979557273443788],2.0,214.19777695415542,216.19993133516982,216.19993133516982,217.19828554056585,217.4506607213989,217.4506607213989,['a'],[0.1511235407087952],217.63220899144653,217.94566573761404,218.06569064359647,219.3751339376904,2.0,219.40051433222834,221.4036602859851,,,,,,,,,,,,,,,,,,,,,,,,,,,,,,,,,,,,,,,,,,,,,,,Maddy,001,2023-12-14_09h39.59.070,Gen_Run1_Tone,2023.1.0,59.960073546427516,
1,1,21,img/Agent_LW.png,img/AS.png,img/confidence.png,img/won.png,1,img/Silent.wav,,,,,,,,,,,,,,,,,,,0,0,0,0,0,0,0,0,0,19,19,20,,,,,,,,,,,,,,,,,,,,,,221.4036602859851,222.40214419795666,222.65455607208423,222.65455607208423,['a'],[1.9554059631191194],2.0,224.63754317513667,226.6406487377826,226.6406487377826,227.63929734297562,227.89168674615212,227.89168674615212,['c'],[0.9302064753137529],228.8399016733747,229.1512629184872,229.27384526291863,230.57623945886735,1.5,230.5915820990922,232.09510053263512,,,,,,,,,,,,,,,,,,,,,,,,,,,,,,,,,,,,,,,,,,,,,,,Maddy,001,2023-12-14_09h39.59.070,Gen_Run1_Tone,2023.1.0,59.960073546427516,
1,1,22,img/Agent_LW.png,img/AW.png,img/confidence.png,img/won.png,1,img/Silent.wav,,,,,,,,,,,,,,,,,,,0,0,0,0,0,0,0,0,0,20,20,21,,,,,,,,,,,,,,,,,,,,,,232.09510053263512,233.09436097752769,233.34538732352667,233.34538732352667,['a'],[1.0412887942511588],0.5,234.4107858997304,234.9136865203036,234.9136865203036,235.91195709898602,236.1650089728646,236.1650089728646,['b'],[0.32527938834391534],236.5138281165855,236.8156783982413,236.94593277396635,238.25485866400413,0.5,238.27998732519336,238.78289733245037,,,,,,,,,,,,,,,,,,,,,,,,,,,,,,,,,,,,,,,,,,,,,,,Maddy,001,2023-12-14_09h39.59.070,Gen_Run1_Tone,2023.1.0,59.960073546427516,
1,1,12,img/Agent_LS.png,img/AW.png,img/confidence.png,img/won.png,1,img/Silent.wav,,,,,,,,,,,,,,,,,,,0,0,0,0,0,0,0,0,0,21,21,11,,,,,,,,,,,,,,,,,,,,,,238.78289733245037,239.78279777697753,240.03783308074344,240.03783308074344,['c'],[0.33308055717498064],2.0,240.40000517689623,242.40221986011602,242.40221986011602,243.40186601143796,243.65652613318525,243.65652613318525,['c'],[1.85665629489813],245.5358512152452,245.846593225142,245.96895484076813,247.27458800387103,1.5,247.28809853841085,248.79055741697084,,,,,,,,,,,,,,,,,,,,,,,,,,,,,,,,,,,,,,,,,,,,,,,Maddy,001,2023-12-14_09h39.59.070,Gen_Run1_Tone,2023.1.0,59.960073546427516,
1,1,11,img/Agent_LS.png,img/AS.png,img/confidence.png,img/won.png,1,img/Silent.wav,,,,,,,,,,,,,,,,,,,0,0,0,0,0,0,0,0,0,22,22,10,,,,,,,,,,,,,,,,,,,,,,248.79055741697084,249.7886072669644,250.0408837456489,250.0408837456489,['c'],[1.0980644420487806],1.5,251.17287271947134,252.67605266429018,252.67605266429018,253.6746213407023,253.9269103349652,253.9269103349652,['c'],[0.7539713399019092],254.70887298346497,255.02024162409361,255.1425429376308,256.44613919511903,2.0,256.4604808759177,258.46353296306916,,,,,,,,,,,,,,,,,,,,,,,,,,,,,,,,,,,,,,,,,,,,,,,Maddy,001,2023-12-14_09h39.59.070,Gen_Run1_Tone,2023.1.0,59.960073546427516,
1,1,2,img/Agent_LM.png,img/LS.png,img/confidence.png,img/lost.png,0,img/WhiteNoiseLong.wav,,,,,,,,,,,,,,,,,,,0,0,0,0,0,0,0,0,0,23,23,1,,,,,,,,,,,,,,,,,,,,,,258.46353296306916,259.4646215313114,259.71428567369003,259.71428567369003,['b'],[1.100593720562756],0.5,260.846469207434,261.3490754280938,261.3490754280938,262.3475758378627,262.59992940095253,262.59992940095253,['a'],[0.22593011148273945],262.8479386465624,263.1232659210218,263.2815303785959,264.58250804198906,0.5,264.59917078807484,265.1111929678591,,,,,,,,,,,,,,,,,,,,,,,,,,,,,,,,,,,,,,,,,,,,,,,Maddy,001,2023-12-14_09h39.59.070,Gen_Run1_Tone,2023.1.0,59.960073546427516,
,,,,,,,,,1,1,61,img/Agent_AS.png,img/HW.png,img/confidence.png,img/lost.png,0,img/WhiteNoiseLong.wav,,,,,,,,,,0,0,0,0,,,,,,,,,0,0,0,0,0,0,0,12,,,,,,,,,,,,,,,,,,,,,,,,,,,,,272.60503546032123,,,,,,,265.1111929678591,266.10017900087405,266.35261590615846,266.35261590615846,['c'],[2.533385652117431],1.0,268.91913561942056,269.9229355105199,269.9229355105199,270.9207333428785,271.17483965167776,271.17483965167776,['c'],[1.4131123693659902],272.87599765276536,273.03851967232765,274.33953260688577,2.0,274.35618596628774,276.3597389598144,,,,,,,,,,,,,,,,,,,,,,,,,,Maddy,001,2023-12-14_09h39.59.070,Gen_Run1_Tone,2023.1.0,59.960073546427516,
,,,,,,,,,1,1,68,img/Agent_AW.png,img/HS.png,img/confidence.png,img/lost.png,0,img/WhiteNoiseLong.wav,,,,,,,,,,0,0,0,0,,,,,,,,,0,0,0,0,0,1,1,19,,,,,,,,,,,,,,,,,,,,,,,,,,,,,280.6440103003988,,,,,,,276.3597389598144,277.3582359562861,277.6104490038706,277.6104490038706,['a'],[1.0955644611967728],0.5,278.72596580930986,279.2286374522373,279.2286374522373,280.22719475079793,280.47953181609046,280.47953181609046,['a'],[0.1403553334530443],280.91301352507435,281.0775565212592,282.37865706463344,1.5,282.39502085978165,283.898796999827,,,,,,,,,,,,,,,,,,,,,,,,,,Maddy,001,2023-12-14_09h39.59.070,Gen_Run1_Tone,2023.1.0,59.960073546427516,
,,,,,,,,,1,1,70,img/Agent_AW.png,img/AS.png,img/confidence.png,img/lost.png,0,img/WhiteNoiseLong.wav,,,,,,,,,,0,0,0,0,,,,,,,,,0,0,0,0,0,2,2,21,,,,,,,,,,,,,,,,,,,,,,,,,,,,,287.7655738223111,,,,,,,283.898796999827,284.89713954296894,285.1492652662564,285.1492652662564,['a'],[0.3615963809425011],0.5,285.5309465423925,286.0335302921012,286.0335302921012,287.03203809738625,287.28467013139743,287.28467013139743,['a'],[0.46228169254027307],288.0350005845539,288.1994434563443,289.5003588264808,0.5,289.5169703726424,290.0197173933266,,,,,,,,,,,,,,,,,,,,,,,,,,Maddy,001,2023-12-14_09h39.59.070,Gen_Run1_Tone,2023.1.0,59.960073546427516,
,,,,,,,,,1,1,64,img/Agent_AS.png,img/AM.png,img/confidence.png,img/won.png,1,img/Silent.wav,,,,,,,,,,0,0,0,0,,,,,,,,,0,0,0,0,0,3,3,15,,,,,,,,,,,,,,,,,,,,,,,,,,,,,294.6545071477303,,,,,,,290.0197173933266,291.01819618523587,291.2703768062638,291.2703768062638,['b'],[0.33542523137293756],1.5,291.634997683228,293.138701005606,293.138701005606,294.13702079316135,294.3895128807053,294.3895128807053,['c'],[0.24377102579455823],294.9680776715977,295.0877057777019,296.3946030110819,2.0,296.4063169956207,298.4089685851941,,,,,,,,,,,,,,,,,,,,,,,,,,Maddy,001,2023-12-14_09h39.59.070,Gen_Run1_Tone,2023.1.0,59.960073546427516,
,,,,,,,,,1,1,57,img/Agent_AS.png,img/LS.png,img/confidence.png,img/lost.png,0,img/WhiteNoiseLong.wav,,,,,,,,,,0,0,0,0,,,,,,,,,0,0,0,0,0,4,4,8,,,,,,,,,,,,,,,,,,,,,,,,,,,,,304.96288144344,,,,,,,298.4089685851941,299.40745335048996,299.6598697757581,299.6598697757581,['c'],[1.4270014993380755],2.0,301.1086176093668,303.11235435388517,303.11235435388517,304.11101888795383,304.3643822283484,304.3643822283484,['a'],[0.5765418232185766],305.23777892254293,305.41177940669,,1.0,306.7139591316227,307.718587893527,,,,,,,,,,,,,,,,,,,,,,,,,,Maddy,001,2023-12-14_09h39.59.070,Gen_Run1_Tone,2023.1.0,59.960073546427516,
,,,,,,,,,1,1,67,img/Agent_AW.png,img/LW.png,img/confidence.png,img/lost.png,0,img/WhiteNoiseLong.wav,,,,,,,,,,0,0,0,0,,,,,,,,,0,0,0,0,0,5,5,18,,,,,,,,,,,,,,,,,,,,,,,,,,,,,311.1990640645381,,,,,,,307.718587893527,308.7142543848604,308.9665937257232,308.9665937257232,['a'],[0.3292047193972394],0.5,309.3146798565285,309.81848045880906,309.81848045880906,310.81545738503337,311.0679198902799,311.0679198902799,['a'],[0.0998555877013132],311.4683204446919,311.63264214326625,312.93405102426186,1.5,312.95067878370173,314.45410278171767,,,,,,,,,,,,,,,,,,,,,,,,,,Maddy,001,2023-12-14_09h39.59.070,Gen_Run1_Tone,2023.1.0,59.960073546427516,
,,,,,,,,,1,1,59,img/Agent_AS.png,img/LW.png,img/confidence.png,img/lost.png,0,img/WhiteNoiseLong.wav,,,,,,,,,,0,0,0,0,,,,,,,,,0,0,0,0,0,6,6,10,,,,,,,,,,,,,,,,,,,,,,,,,,,,,319.4885484154802,,,,,,,314.45410278171767,315.45225816057064,315.70455682592,315.70455682592,['c'],[0.6252802130766213],0.5,316.3531213635579,316.8574424989056,316.8574424989056,317.85501106921583,318.12297009897884,318.12297009897884,['a'],[1.3396975845098495],319.7576133646071,319.9221961829811,321.223249224131,0.5,321.23984910803847,321.7422681644093,,,,,,,,,,,,,,,,,,,,,,,,,,Maddy,001,2023-12-14_09h39.59.070,Gen_Run1_Tone,2023.1.0,59.960073546427516,
,,,,,,,,,1,1,56,img/Agent_AM.png,img/AS.png,img/confidence.png,img/won.png,1,img/Silent.wav,,,,,,,,,,0,0,0,0,,,,,,,,,0,0,0,0,0,7,7,7,,,,,,,,,,,,,,,,,,,,,,,,,,,,,327.44431334733963,,,,,,,321.7422681644093,322.7409420851618,322.99305529287085,322.99305529287085,['c'],[1.3377832745900378],1.0,324.3589504802367,325.3615181588102,325.3615181588102,326.36002368852496,326.61260935815517,326.61260935815517,['b'],[0.8001875624759123],327.759666198981,327.8776055595139,329.1849135303637,1.5,329.1964517282322,330.69902950455435,,,,,,,,,,,,,,,,,,,,,,,,,,Maddy,001,2023-12-14_09h39.59.070,Gen_Run1_Tone,2023.1.0,59.960073546427516,
,,,,,,,,,1,1,58,img/Agent_AS.png,img/LM.png,img/confidence.png,img/lost.png,0,img/WhiteNoiseLong.wav,,,,,,,,,,0,0,0,0,,,,,,,,,0,0,0,0,0,8,8,9,,,,,,,,,,,,,,,,,,,,,,,,,,,,,335.1332593020052,,,,,,,330.69902950455435,331.69728955894243,331.94959476648364,331.94959476648364,['c'],[0.45564987417310476],1.0,332.43107502593193,333.4341054953402,333.4341054953402,334.4325077717658,334.6848374415422,334.6848374415422,['a'],[0.4279890898615122],335.40853509213775,335.5668092206819,336.8678184574237,1.5,336.8844658435555,338.38753087294754,,,,,,,,,,,,,,,,,,,,,,,,,,Maddy,001,2023-12-14_09h39.59.070,Gen_Run1_Tone,2023.1.0,59.960073546427516,
,,,,,,,,,1,1,72,img/Agent_AW.png,img/HW.png,img/confidence.png,img/lost.png,0,img/WhiteNoiseLong.wav,,,,,,,,,,0,0,0,0,,,,,,,,,0,0,0,0,0,9,9,23,,,,,,,,,,,,,,,,,,,,,,,,,,,,,344.289581346442,,,,,,,338.38753087294754,339.38611291814595,339.6383828546386,339.6383828546386,['a'],[1.1356176295084879],2.0,340.8034552584868,342.80740163847804,342.80740163847804,343.80596889264416,344.05810115812346,344.05810115812346,['a'],[0.19976521970238537],344.5587398777716,344.7231685273349,346.0242849995848,0.5,346.0405956036411,346.54355709522497,,,,,,,,,,,,,,,,,,,,,,,,,,Maddy,001,2023-12-14_09h39.59.070,Gen_Run1_Tone,2023.1.0,59.960073546427516,
,,,,,,,,,1,1,51,img/Agent_AM.png,img/LW.png,img/confidence.png,img/lost.png,0,img/WhiteNoiseLong.wav,,,,,,,,,,0,0,0,0,,,,,,,,,0,0,0,0,0,10,10,2,,,,,,,,,,,,,,,,,,,,,,,,,,,,,350.3606096437434,,,,,,,346.54355709522497,347.54207371838856,347.79436783259735,347.79436783259735,['a'],[0.7245111612137407],0.5,348.54270746023394,349.0455884541152,349.0455884541152,350.0436880819034,350.2960004005581,350.2960004005581,['a'],[0.03673114348202944],350.6298296151217,350.7940804869635,352.09495262161363,1.0,352.11178546538576,353.11485888576135,,,,,,,,,,,,,,,,,,,,,,,,,,Maddy,001,2023-12-14_09h39.59.070,Gen_Run1_Tone,2023.1.0,59.960073546427516,
,,,,,,,,,1,1,60,img/Agent_AS.png,img/HS.png,img/confidence.png,img/lost.png,0,img/WhiteNoiseLong.wav,,,,,,,,,,0,0,0,0,,,,,,,,,0,0,0,0,0,11,11,11,,,,,,,,,,,,,,,,,,,,,,,,,,,,,358.7332160095684,,,,,,,353.11485888576135,354.1133211799897,354.3656158631202,354.3656158631202,['c'],[0.9653134419349954],1.5,355.34757014899515,356.8511648136191,356.8511648136191,357.84971357882023,358.1079622497782,358.1079622497782,['a'],[0.6068578948033974],359.0048520505661,359.1668447194155,360.46829740470275,2.0,360.485017893021,362.49052444985136,,,,,,,,,,,,,,,,,,,,,,,,,,Maddy,001,2023-12-14_09h39.59.070,Gen_Run1_Tone,2023.1.0,59.960073546427516,
,,,,,,,,,1,1,69,img/Agent_AW.png,img/HM.png,img/confidence.png,img/lost.png,0,img/WhiteNoiseLong.wav,,,,,,,,,,0,0,0,0,,,,,,,,,0,0,0,0,0,12,12,20,,,,,,,,,,,,,,,,,,,,,,,,,,,,,367.62327402771916,,,,,,,362.49052444985136,363.48708978516515,363.7392115262337,363.7392115262337,['a'],[1.0488575721392408],1.0,364.821124084061,365.82389713136945,365.82389713136945,366.822506483295,367.07484468631446,367.07484468631446,['a'],[0.5210510102333501],367.89230143022723,368.056927199685,369.3575276900083,2.0,369.3740140806185,371.3824250980979,,,,,,,,,,,,,,,,,,,,,,,,,,Maddy,001,2023-12-14_09h39.59.070,Gen_Run1_Tone,2023.1.0,59.960073546427516,
,,,,,,,,,1,1,53,img/Agent_AM.png,img/HW.png,img/confidence.png,img/lost.png,0,img/WhiteNoiseLong.wav,,,,,,,,,,0,0,0,0,,,,,,,,,0,0,0,0,0,13,13,4,,,,,,,,,,,,,,,,,,,,,,,,,,,,,376.97976491821464,,,,,,,371.3824250980979,372.39318505639676,372.64523056626786,372.64523056626786,['b'],[0.5817246823571622],2.0,373.2438680212945,375.247661654721,375.247661654721,376.246139593306,376.49818311224226,376.49818311224226,['a'],[0.4575681663118303],377.2360056969337,377.4144403829472,378.7154672552133,2.0,378.73210013471544,380.73480406205636,,,,,,,,,,,,,,,,,,,,,,,,,,Maddy,001,2023-12-14_09h39.59.070,Gen_Run1_Tone,2023.1.0,59.960073546427516,
,,,,,,,,,1,1,52,img/Agent_AM.png,img/HM.png,img/confidence.png,img/lost.png,0,img/WhiteNoiseLong.wav,,,,,,,,,,0,0,0,0,,,,,,,,,0,0,0,0,0,14,14,3,,,,,,,,,,,,,,,,,,,,,,,,,,,,,385.5524604857201,,,,,,,380.73480406205636,381.73309824964963,381.98553600825835,381.98553600825835,['a'],[0.7892276399070397],1.0,382.80056502018124,383.8035172673408,383.8035172673408,384.8019892326556,385.05439826240763,385.05439826240763,['a'],[0.4673854763386771],385.8216724926606,385.9861833465751,387.2870944500901,1.5,387.30390140938107,388.80741500738077,,,,,,,,,,,,,,,,,,,,,,,,,,Maddy,001,2023-12-14_09h39.59.070,Gen_Run1_Tone,2023.1.0,59.960073546427516,
,,,,,,,,,1,1,63,img/Agent_AS.png,img/HM.png,img/confidence.png,img/won.png,1,img/Silent.wav,,,,,,,,,,0,0,0,0,,,,,,,,,0,0,0,0,0,15,15,14,,,,,,,,,,,,,,,,,,,,,,,,,,,,,393.94340611225925,,,,,,,388.80741500738077,389.8054230440175,390.05782354052644,390.05782354052644,['a'],[1.17467552726157],0.5,391.2569206005428,391.75927366584074,391.75927366584074,392.75772060011514,393.0098355144728,393.0098355144728,['a'],[0.9140454889275134],394.2659790131729,394.39213483114725,395.6955092221033,2.0,395.71025083155837,397.7158677527914,,,,,,,,,,,,,,,,,,,,,,,,,,Maddy,001,2023-12-14_09h39.59.070,Gen_Run1_Tone,2023.1.0,59.960073546427516,
,,,,,,,,,1,1,49,img/Agent_AM.png,img/LS.png,img/confidence.png,img/lost.png,0,img/WhiteNoiseLong.wav,,,,,,,,,,0,0,0,0,,,,,,,,,0,0,0,0,0,16,16,0,,,,,,,,,,,,,,,,,,,,,,,,,,,,,401.6971783412155,,,,,,,397.7158677527914,398.7120573371649,398.96442170918453,398.96442170918453,['b'],[0.428369676345028],1.0,399.41244876093697,400.41545533703174,400.41545533703174,401.4139034090331,401.6658638701774,401.6658638701774,['a'],[0.002914700540713966],401.9716283895541,402.13122546856755,403.43209248315543,0.5,403.4488163847709,403.9513495032443,,,,,,,,,,,,,,,,,,,,,,,,,,Maddy,001,2023-12-14_09h39.59.070,Gen_Run1_Tone,2023.1.0,59.960073546427516,
,,,,,,,,,1,1,66,img/Agent_AW.png,img/LM.png,img/confidence.png,img/lost.png,0,img/WhiteNoiseLong.wav,,,,,,,,,,0,0,0,0,,,,,,,,,0,0,0,0,0,17,17,17,,,,,,,,,,,,,,,,,,,,,,,,,,,,,408.41893864166923,,,,,,,403.9513495032443,404.94971565529704,405.20192386745475,405.20192386745475,['a'],[0.5611824006773531],1.0,405.78374270081986,406.7865365125472,406.7865365125472,407.78510120674036,408.0374305921141,408.0374305921141,['a'],[0.3514073023106903],408.68820042628795,408.85245442714074,410.1538049969822,0.5,410.1703670497518,410.673918763292,,,,,,,,,,,,,,,,,,,,,,,,,,Maddy,001,2023-12-14_09h39.59.070,Gen_Run1_Tone,2023.1.0,59.960073546427516,
,,,,,,,,,1,1,54,img/Agent_AM.png,img/AS.png,img/confidence.png,img/lost.png,0,img/WhiteNoiseLong.wav,,,,,,,,,,0,0,0,0,,,,,,,,,0,0,0,0,0,18,18,5,,,,,,,,,,,,,,,,,,,,,,,,,,,,,415.95775433513336,,,,,,,410.673918763292,411.6724314041203,411.92742290359456,411.92742290359456,['a'],[1.1181857461342588],1.0,413.0720665190602,414.07511718396563,414.07511718396563,415.0737555491505,415.3259791212622,415.3259791212622,['a'],[0.6059183753095567],416.22673850215506,416.3912240406265,417.6920808152063,0.5,417.7091241477756,418.21142544422764,,,,,,,,,,,,,,,,,,,,,,,,,,Maddy,001,2023-12-14_09h39.59.070,Gen_Run1_Tone,2023.1.0,59.960073546427516,
,,,,,,,,,1,1,65,img/Agent_AW.png,img/LS.png,img/confidence.png,img/lost.png,0,img/WhiteNoiseLong.wav,,,,,,,,,,0,0,0,0,,,,,,,,,0,0,0,0,0,19,19,16,,,,,,,,,,,,,,,,,,,,,,,,,,,,,422.19548091990873,,,,,,,418.21142544422764,419.21022139152046,419.462344554835,419.462344554835,['a'],[0.5071123871020973],0.5,419.9939746167511,420.49647360201925,420.49647360201925,421.4950505272718,421.7471617439296,421.7471617439296,['a'],[0.42245892412029207],422.46479532669764,422.6291289719287,423.9298628666438,1.5,423.94670509698335,425.4502593706129,,,,,,,,,,,,,,,,,,,,,,,,,,Maddy,001,2023-12-14_09h39.59.070,Gen_Run1_Tone,2023.1.0,59.960073546427516,
,,,,,,,,,1,1,62,img/Agent_AS.png,img/AW.png,img/confidence.png,img/won.png,1,img/Silent.wav,,,,,,,,,,0,0,0,0,,,,,,,,,0,0,0,0,0,20,20,13,,,,,,,,,,,,,,,,,,,,,,,,,,,,,431.3698318962706,,,,,,,425.4502593706129,426.44847903377376,426.7008044369286,426.7008044369286,['a'],[0.48897309065796435],2.0,427.21589548606426,429.21976535057183,429.21976535057183,430.22035671025515,430.4702236613957,430.4702236613957,['c'],[0.8765651190187782],431.67367243452463,431.8022525711916,433.10593217087444,1.0,433.1204203404486,434.12315783218946,,,,,,,,,,,,,,,,,,,,,,,,,,Maddy,001,2023-12-14_09h39.59.070,Gen_Run1_Tone,2023.1.0,59.960073546427516,
,,,,,,,,,1,1,50,img/Agent_AM.png,img/LM.png,img/confidence.png,img/lost.png,0,img/WhiteNoiseLong.wav,,,,,,,,,,0,0,0,0,,,,,,,,,0,0,0,0,0,21,21,1,,,,,,,,,,,,,,,,,,,,,,,,,,,,,438.15852478099987,,,,,,,434.12315783218946,435.12119089998305,435.3736627919134,435.3736627919134,['b'],[0.621221762150526],0.5,436.02218636963516,436.52468535490334,436.52468535490334,437.5230816580588,437.77686483808793,437.77686483808793,['a'],[0.35896043584216386],438.4355712366523,438.60717129553666,439.90805765229743,0.5,439.9249596160371,440.42753113457,,,,,,,,,,,,,,,,,,,,,,,,,,Maddy,001,2023-12-14_09h39.59.070,Gen_Run1_Tone,2023.1.0,59.960073546427516,
,,,,,,,,,1,1,55,img/Agent_AM.png,img/HS.png,img/confidence.png,img/won.png,1,img/Silent.wav,,,,,,,,,,0,0,0,0,,,,,,,,,0,0,0,0,0,22,22,6,,,,,,,,,,,,,,,,,,,,,,,,,,,,,444.57810086233076,,,,,,,440.42753113457,441.42729419248644,441.6813751857262,441.6813751857262,['b'],[0.7185065423836932],0.5,442.4265830818331,442.92944018240087,442.92944018240087,443.9277153122239,444.1798492843518,444.1798492843518,['a'],[0.3723506503738463],444.8922934657894,445.01165163433177,446.3160301136086,1.0,446.33121403388213,447.335470742546,,,,,,,,,,,,,,,,,,,,,,,,,,Maddy,001,2023-12-14_09h39.59.070,Gen_Run1_Tone,2023.1.0,59.960073546427516,
,,,,,,,,,1,1,71,img/Agent_AW.png,img/AM.png,img/confidence.png,img/lost.png,0,img/WhiteNoiseLong.wav,,,,,,,,,,0,0,0,0,,,,,,,,,0,0,0,0,0,23,23,22,,,,,,,,,,,,,,,,,,,,,,,,,,,,,452.4839486669516,,,,,,,447.335470742546,448.3318699623924,448.58602235105354,448.58602235105354,['a'],[0.4588296767324209],1.0,449.064748336561,450.06807775690686,450.06807775690686,451.0661190735409,451.31869194319006,451.31869194319006,['c'],[1.146138939075172],452.75750698242337,452.91747099449856,454.21845121798106,0.5,454.2350462663453,454.7484024898149,,,,,,,,,,,,,,,,,,,,,,,,,,Maddy,001,2023-12-14_09h39.59.070,Gen_Run1_Tone,2023.1.0,59.960073546427516,
,,,,,,,,,,,,,,,,,,1,1,28,img/Agent_HM.png,img/HW.png,img/confidence.png,img/lost.png,0,img/WhiteNoiseLong.wav,0,0,0,0,,,,,,,,,,,,,,,,,0,0,0,0,0,0,0,3,,,,,,,,,,,,,,,,,,,,,460.22286693099886,,,,,,,,,,,,,,,,,,,,,,,,,,,,454.7484024898149,455.73614237236325,455.9889075263636,455.9889075263636,['c'],[1.8417471478460357],1.0,457.85446635843255,458.86004146630876,458.86004146630876,459.8560925263446,460.1089432981098,460.1089432981098,['c'],[0.09417694201692939],460.49656746862456,460.6568261650158,461.95731031766627,2.0,461.9739099170547,463.98191844590474,,,,,Maddy,001,2023-12-14_09h39.59.070,Gen_Run1_Tone,2023.1.0,59.960073546427516,
,,,,,,,,,,,,,,,,,,1,1,44,img/Agent_HW.png,img/HM.png,img/confidence.png,img/lost.png,0,img/WhiteNoiseLong.wav,0,0,0,0,,,,,,,,,,,,,,,,,0,0,0,0,0,1,1,19,,,,,,,,,,,,,,,,,,,,,469.0956702744588,,,,,,,,,,,,,,,,,,,,,,,,,,,,463.98191844590474,464.99279644864146,465.24498901620973,465.24498901620973,['c'],[0.4799328825902194],1.0,465.7448816385586,466.75083079072647,466.75083079072647,467.7615005801199,468.01375714782625,468.01375714782625,['b'],[1.0539960581809282],469.3650717212586,469.5293177575571,470.8316732691601,1.5,470.848189810873,472.3501036942471,,,,,Maddy,001,2023-12-14_09h39.59.070,Gen_Run1_Tone,2023.1.0,59.960073546427516,
,,,,,,,,,,,,,,,,,,1,1,45,img/Agent_HW.png,img/AS.png,img/confidence.png,img/lost.png,0,img/WhiteNoiseLong.wav,0,0,0,0,,,,,,,,,,,,,,,,,0,0,0,0,0,2,2,20,,,,,,,,,,,,,,,,,,,,,477.4352495302446,,,,,,,,,,,,,,,,,,,,,,,,,,,,472.3501036942471,473.3484283173457,473.60093775601126,473.60093775601126,['c'],[0.7989869231823832],1.0,474.4329398426926,475.4358576721279,475.4358576721279,476.4341652286239,476.6868075026432,476.6868075026432,['c'],[0.727149666287005],477.70616763387807,477.86870131557805,479.16973103233613,1.5,479.18637073843274,480.6898536165245,,,,,Maddy,001,2023-12-14_09h39.59.070,Gen_Run1_Tone,2023.1.0,59.960073546427516,
,,,,,,,,,,,,,,,,,,1,1,35,img/Agent_HS.png,img/LW.png,img/confidence.png,img/lost.png,0,img/WhiteNoiseLong.wav,0,0,0,0,,,,,,,,,,,,,,,,,0,0,0,0,0,3,3,10,,,,,,,,,,,,,,,,,,,,,485.20764318853617,,,,,,,,,,,,,,,,,,,,,,,,,,,,480.6898536165245,481.6880536531098,481.9404336694861,481.9404336694861,['b'],[1.1081991917453706],0.5,483.0727338253055,483.5749756729929,483.5749756729929,484.5735326871509,484.82592607242987,484.82592607242987,['a'],[0.3639379263622686],485.47638216463383,485.6407562008593,486.94336202333216,1.5,486.9597778718453,488.46223504375666,,,,,Maddy,001,2023-12-14_09h39.59.070,Gen_Run1_Tone,2023.1.0,59.960073546427516,
,,,,,,,,,,,,,,,,,,1,1,48,img/Agent_HW.png,img/AM.png,img/confidence.png,img/won.png,1,img/Silent.wav,0,0,0,0,,,,,,,,,,,,,,,,,0,0,0,0,0,4,4,23,,,,,,,,,,,,,,,,,,,,,493.3144736344693,,,,,,,,,,,,,,,,,,,,,,,,,,,,488.46223504375666,489.4601025650045,489.7124109014403,489.7124109014403,['c'],[0.4224575018743053],1.5,490.1607226819033,491.6641830888111,491.6641830888111,492.66381900024135,492.91855364642106,492.91855364642106,['b'],[0.37441230250988156],493.61770204862114,493.74658198955,495.0545817289967,1.0,495.0818815535167,496.0838723790366,,,,,Maddy,001,2023-12-14_09h39.59.070,Gen_Run1_Tone,2023.1.0,59.960073546427516,
,,,,,,,,,,,,,,,,,,1,1,27,img/Agent_HM.png,img/HS.png,img/confidence.png,img/lost.png,0,img/WhiteNoiseLong.wav,0,0,0,0,,,,,,,,,,,,,,,,,0,0,0,0,0,5,5,2,,,,,,,,,,,,,,,,,,,,,501.3855744651519,,,,,,,,,,,,,,,,,,,,,,,,,,,,496.0838723790366,497.08231732214335,497.33458043192513,497.33458043192513,['c'],[1.0992471612989902],1.0,498.4517751741223,499.470039910404,499.470039910404,500.468396960292,500.720602896763,500.720602896763,['c'],[0.6320323515683413],501.65994060237426,501.81912353050427,503.1199953806354,2.0,503.13685268664267,505.14088383095805,,,,,Maddy,001,2023-12-14_09h39.59.070,Gen_Run1_Tone,2023.1.0,59.960073546427516,
,,,,,,,,,,,,,,,,,,1,1,38,img/Agent_HS.png,img/AS.png,img/confidence.png,img/won.png,1,img/Silent.wav,0,0,0,0,,,,,,,,,,,,,,,,,0,0,0,0,0,6,6,13,,,,,,,,,,,,,,,,,,,,,509.5580370159587,,,,,,,,,,,,,,,,,,,,,,,,,,,,505.14088383095805,506.13909666764084,506.3912457152037,506.3912457152037,['a'],[0.6584617765620351],0.5,507.07300546963234,507.5758153524948,507.5758153524948,508.5740779667394,508.82619629451074,508.82619629451074,['b'],[0.7060646649915725],509.8731307388516,509.9917883211514,511.2962521337904,1.5,511.31113937858026,512.8146117321448,,,,,Maddy,001,2023-12-14_09h39.59.070,Gen_Run1_Tone,2023.1.0,59.960073546427516,
,,,,,,,,,,,,,,,,,,1,1,41,img/Agent_HW.png,img/LS.png,img/confidence.png,img/lost.png,0,img/WhiteNoiseLong.wav,0,0,0,0,,,,,,,,,,,,,,,,,0,0,0,0,0,7,7,16,,,,,,,,,,,,,,,,,,,,,519.367041497957,,,,,,,,,,,,,,,,,,,,,,,,,,,,512.8146117321448,513.8109367120778,514.063322132919,514.063322132919,['c'],[0.9724299535155296],1.5,515.0634353416972,516.5655790560413,516.5655790560413,517.5638615814969,517.8161241224734,517.8161241224734,['a'],[1.5208043970633298],519.6447347799549,519.8154647237155,521.1164787960006,1.0,521.1330075687729,522.1384316368494,,,,,Maddy,001,2023-12-14_09h39.59.070,Gen_Run1_Tone,2023.1.0,59.960073546427516,
,,,,,,,,,,,,,,,,,,1,1,43,img/Agent_HW.png,img/HS.png,img/confidence.png,img/lost.png,0,img/WhiteNoiseLong.wav,0,0,0,0,,,,,,,,,,,,,,,,,0,0,0,0,0,8,8,18,,,,,,,,,,,,,,,,,,,,,527.8404512197012,,,,,,,,,,,,,,,,,,,,,,,,,,,,522.1384316368494,523.1344229636015,523.3866940378211,523.3866940378211,['c'],[0.7419942445121706],2.0,524.1519117358839,526.1556129248347,526.1556129248347,527.1539856190793,527.4063787199557,527.4063787199557,['b'],[0.40838490542955697],528.1071982324356,528.2713939221343,529.5724640298868,2.0,529.5889219761593,531.5966420783661,,,,,Maddy,001,2023-12-14_09h39.59.070,Gen_Run1_Tone,2023.1.0,59.960073546427516,
,,,,,,,,,,,,,,,,,,1,1,37,img/Agent_HS.png,img/HW.png,img/confidence.png,img/won.png,1,img/Silent.wav,0,0,0,0,,,,,,,,,,,,,,,,,0,0,0,0,0,9,9,12,,,,,,,,,,,,,,,,,,,,,535.4933819771977,,,,,,,,,,,,,,,,,,,,,,,,,,,,531.5966420783661,532.5924482318806,532.8483701485675,532.8483701485675,['b'],[0.7405137120513245],0.5,533.608707067091,534.1111864256673,534.1111864256673,535.1100102486089,535.3620694119018,535.3620694119018,['c'],[0.11357063765171915],535.8078564648749,535.9268784202635,537.2343832267215,1.0,537.2611298070988,538.2641887208447,,,,,Maddy,001,2023-12-14_09h39.59.070,Gen_Run1_Tone,2023.1.0,59.960073546427516,
,,,,,,,,,,,,,,,,,,1,1,47,img/Agent_HW.png,img/LW.png,img/confidence.png,img/won.png,1,img/Silent.wav,0,0,0,0,,,,,,,,,,,,,,,,,0,0,0,0,0,10,10,22,,,,,,,,,,,,,,,,,,,,,543.2321887391154,,,,,,,,,,,,,,,,,,,,,,,,,,,,538.2641887208447,539.263923334307,539.5179579631658,539.5179579631658,['c'],[0.6177888041129336],0.5,540.1634121026145,540.666158554377,540.666158554377,541.6644814709434,541.9168367406819,541.9168367406819,['b'],[1.2979917949996889],543.5437252018601,543.6658177332487,544.9742805480491,1.5,544.9998111290624,546.5033406559378,,,,,Maddy,001,2023-12-14_09h39.59.070,Gen_Run1_Tone,2023.1.0,59.960073546427516,
,,,,,,,,,,,,,,,,,,1,1,30,img/Agent_HM.png,img/AS.png,img/confidence.png,img/won.png,1,img/Silent.wav,0,0,0,0,,,,,,,,,,,,,,,,,0,0,0,0,0,11,11,5,,,,,,,,,,,,,,,,,,,,,551.6717282579048,,,,,,,,,,,,,,,,,,,,,,,,,,,,546.5033406559378,547.501984141185,547.7543641575612,547.7543641575612,['c'],[0.4342955040046945],1.5,548.218983697705,549.7223169580102,549.7223169580102,550.720915501006,550.9731194464257,550.9731194464257,['a'],[0.6766682016896084],551.9832379829604,552.1054656253895,553.4149202973349,2.0,553.4404761939077,555.4473751055775,,,,,Maddy,001,2023-12-14_09h39.59.070,Gen_Run1_Tone,2023.1.0,59.960073546427516,
,,,,,,,,,,,,,,,,,,1,1,32,img/Agent_HM.png,img/AW.png,img/confidence.png,img/won.png,1,img/Silent.wav,0,0,0,0,,,,,,,,,,,,,,,,,0,0,0,0,0,12,12,7,,,,,,,,,,,,,,,,,,,,,559.6773872768972,,,,,,,,,,,,,,,,,,,,,,,,,,,,555.4473751055775,556.4584178015357,556.6987166159088,556.6987166159088,['c'],[0.5640154657885432],0.5,557.2922562604072,557.7949352989672,557.7949352989672,558.7944383748109,559.0480579993455,559.0480579993455,['c'],[0.6098363108467311],559.9894678816199,560.1110233822604,561.415694270283,0.5,561.4302720397245,561.9370573158376,,,,,Maddy,001,2023-12-14_09h39.59.070,Gen_Run1_Tone,2023.1.0,59.960073546427516,
,,,,,,,,,,,,,,,,,,1,1,39,img/Agent_HS.png,img/AM.png,img/confidence.png,img/won.png,1,img/Silent.wav,0,0,0,0,,,,,,,,,,,,,,,,,0,0,0,0,0,13,13,14,,,,,,,,,,,,,,,,,,,,,565.6647735951701,,,,,,,,,,,,,,,,,,,,,,,,,,,,561.9370573158376,562.9463839593809,563.1987321181223,563.1987321181223,['b'],[0.3919070481788367],0.5,563.6139536418486,564.1159855696606,564.1159855696606,565.1157523252768,565.36776711524,565.36776711524,['c'],[0.27496546145994216],565.9765893822769,566.0993964377325,567.4049459741218,1.5,567.4188774861395,568.9361951652681,,,,,Maddy,001,2023-12-14_09h39.59.070,Gen_Run1_Tone,2023.1.0,59.960073546427516,
,,,,,,,,,,,,,,,,,,1,1,34,img/Agent_HS.png,img/LM.png,img/confidence.png,img/lost.png,0,img/WhiteNoiseLong.wav,0,0,0,0,,,,,,,,,,,,,,,,,0,0,0,0,0,14,14,9,,,,,,,,,,,,,,,,,,,,,573.9377371376613,,,,,,,,,,,,,,,,,,,,,,,,,,,,568.9361951652681,569.9346412461018,570.1869731914485,570.1869731914485,['b'],[1.2811444444814697],0.5,571.4874533049297,571.9913466360886,571.9913466360886,573.0041349665262,573.2558655967005,573.2558655967005,['c'],[0.6519829890457913],574.2113500664709,574.3710398742463,575.6723509064177,1.5,575.6890739547089,577.1926654904382,,,,,Maddy,001,2023-12-14_09h39.59.070,Gen_Run1_Tone,2023.1.0,59.960073546427516,
,,,,,,,,,,,,,,,,,,1,1,29,img/Agent_HM.png,img/LW.png,img/confidence.png,img/won.png,1,img/Silent.wav,0,0,0,0,,,,,,,,,,,,,,,,,0,0,0,0,0,15,15,4,,,,,,,,,,,,,,,,,,,,,582.143461180618,,,,,,,,,,,,,,,,,,,,,,,,,,,,577.1926654904382,578.19118524238,578.4427153392462,578.4427153392462,['c'],[1.0065575784537941],1.0,579.4764723334229,580.4815815216862,580.4815815216862,581.492820484098,581.7454601981444,581.7454601981444,['a'],[0.3712481444235891],582.4573135888204,582.5771792059298,583.8847374878824,2.0,583.9110446018167,585.9182424643077,,,,,Maddy,001,2023-12-14_09h39.59.070,Gen_Run1_Tone,2023.1.0,59.960073546427516,
,,,,,,,,,,,,,,,,,,1,1,36,img/Agent_HS.png,img/HM.png,img/confidence.png,img/won.png,1,img/Silent.wav,0,0,0,0,,,,,,,,,,,,,,,,,0,0,0,0,0,16,16,11,,,,,,,,,,,,,,,,,,,,,592.4341538508888,,,,,,,,,,,,,,,,,,,,,,,,,,,,585.9182424643077,586.930090137641,587.1825185095659,587.1825185095659,['b'],[0.7954657874070108],1.5,587.9988431651145,589.500847217394,589.500847217394,590.5010380794993,590.754097064375,590.754097064375,['b'],[1.6495410349452868],592.7470957528567,592.8676465962548,594.1744619096862,1.5,594.186653476092,595.6887997504091,,,,,Maddy,001,2023-12-14_09h39.59.070,Gen_Run1_Tone,2023.1.0,59.960073546427516,
,,,,,,,,,,,,,,,,,,1,1,33,img/Agent_HS.png,img/LS.png,img/confidence.png,img/lost.png,0,img/WhiteNoiseLong.wav,0,0,0,0,,,,,,,,,,,,,,,,,0,0,0,0,0,17,17,8,,,,,,,,,,,,,,,,,,,,,600.4255696068285,,,,,,,,,,,,,,,,,,,,,,,,,,,,595.6887997504091,596.6873948801076,596.9395999632543,596.9395999632543,['b'],[0.9622733014402911],1.0,597.9214418936754,598.9244157585781,598.9244157585781,599.9231767193414,600.175494157942,600.175494157942,['b'],[0.22201046929694712],600.6975119943963,600.8568704245612,602.1578409769572,2.0,602.1744272074429,604.1811460659374,,,,,Maddy,001,2023-12-14_09h39.59.070,Gen_Run1_Tone,2023.1.0,59.960073546427516,
,,,,,,,,,,,,,,,,,,1,1,46,img/Agent_HW.png,img/AW.png,img/confidence.png,img/won.png,1,img/Silent.wav,0,0,0,0,,,,,,,,,,,,,,,,,0,0,0,0,0,18,18,21,,,,,,,,,,,,,,,,,,,,,608.8293806482106,,,,,,,,,,,,,,,,,,,,,,,,,,,,604.1811460659374,605.1767093039816,605.4289886271581,605.4289886271581,['c'],[0.34969352546613663],0.5,605.8103499035351,606.3132553596515,606.3132553596515,607.311521956115,607.5638977058697,607.5638977058697,['a'],[1.2310384463053197],609.1444584423443,609.2632838467601,610.565799500444,1.0,610.5809387628688,611.5833758815425,,,,,Maddy,001,2023-12-14_09h39.59.070,Gen_Run1_Tone,2023.1.0,59.960073546427516,
,,,,,,,,,,,,,,,,,,1,1,42,img/Agent_HW.png,img/LM.png,img/confidence.png,img/lost.png,0,img/WhiteNoiseLong.wav,0,0,0,0,,,,,,,,,,,,,,,,,0,0,0,0,0,19,19,17,,,,,,,,,,,,,,,,,,,,,616.9696742573287,,,,,,,,,,,,,,,,,,,,,,,,,,,,611.5833758815425,612.5817630824167,612.8344704941846,612.8344704941846,['c'],[1.454195510596037],1.0,614.3181270367932,615.324916152982,615.324916152982,616.3346797029953,616.5867766973097,616.5867766973097,['b'],[0.35750550334341824],617.2308384820353,617.4184541762573,618.719392301864,1.0,618.7363002389902,619.7436258170055,,,,,Maddy,001,2023-12-14_09h39.59.070,Gen_Run1_Tone,2023.1.0,59.960073546427516,
,,,,,,,,,,,,,,,,,,1,1,40,img/Agent_HS.png,img/AW.png,img/confidence.png,img/won.png,1,img/Silent.wav,0,0,0,0,,,,,,,,,,,,,,,,,0,0,0,0,0,20,20,15,,,,,,,,,,,,,,,,,,,,,625.7425238798605,,,,,,,,,,,,,,,,,,,,,,,,,,,,619.7436258170055,620.7544085308909,621.0067080495646,621.0067080495646,['b'],[0.4009253542171791],2.0,621.4399525319459,623.442073917482,623.442073917482,624.4403874472482,624.6928331702948,624.6928331702948,['c'],[1.026105158496648],626.0434818597278,626.1916135586565,,0.5,627.494545354275,628.0118101267144,,,,,Maddy,001,2023-12-14_09h39.59.070,Gen_Run1_Tone,2023.1.0,59.960073546427516,
,,,,,,,,,,,,,,,,,,1,1,26,img/Agent_HM.png,img/LM.png,img/confidence.png,img/lost.png,0,img/WhiteNoiseLong.wav,0,0,0,0,,,,,,,,,,,,,,,,,0,0,0,0,0,21,21,1,,,,,,,,,,,,,,,,,,,,,635.1316066806903,,,,,,,,,,,,,,,,,,,,,,,,,,,,628.0118101267144,629.010353203048,629.2627007928677,629.2627007928677,['c'],[1.4801026957575232],2.0,630.7616174867144,632.7651454492006,632.7651454492006,633.7652808446437,634.0194269756321,634.0194269756321,['c'],[1.0952842836268246],635.4061062223045,635.5650453817565,636.8658307607984,2.0,636.8827037111623,638.8863608114189,,,,,Maddy,001,2023-12-14_09h39.59.070,Gen_Run1_Tone,2023.1.0,59.960073546427516,
,,,,,,,,,,,,,,,,,,1,1,25,img/Agent_HM.png,img/LS.png,img/confidence.png,img/lost.png,0,img/WhiteNoiseLong.wav,0,0,0,0,,,,,,,,,,,,,,,,,0,0,0,0,0,22,22,0,,,,,,,,,,,,,,,,,,,,,644.0045127086341,,,,,,,,,,,,,,,,,,,,,,,,,,,,638.8863608114189,639.884801203385,640.1371692731045,640.1371692731045,['c'],[1.3346640585223213],1.0,641.5027638028841,642.5061788409948,642.5061788409948,643.5041433577426,643.756729596178,643.756729596178,['a'],[0.22385594376828521],644.2738345109392,644.4381710005458,645.7390001841122,0.5,645.7558227878762,646.2633143390995,,,,,Maddy,001,2023-12-14_09h39.59.070,Gen_Run1_Tone,2023.1.0,59.960073546427516,
,,,,,,,,,,,,,,,,,,1,1,31,img/Agent_HM.png,img/AM.png,img/confidence.png,img/won.png,1,img/Silent.wav,0,0,0,0,,,,,,,,,,,,,,,,,0,0,0,0,0,23,23,6,,,,,,,,,,,,,,,,,,,,,651.6098767019575,,,,,,,,,,,,,,,,,,,,,,,,,,,,646.2633143390995,647.2734488045098,647.5256880209781,647.5256880209781,['c'],[0.7781044462462887],1.5,648.3257131659193,649.8306643452961,649.8306643452961,650.8262250233674,651.078467937652,651.078467937652,['a'],[0.5056224678410217],651.9248850917211,652.043844469334,653.3466815450229,1.0,653.3621900161961,654.3619220696855,,,,,Maddy,001,2023-12-14_09h39.59.070,Gen_Run1_Tone,2023.1.0,59.960073546427516,
,,,,,,,,,,,,,,,,,,,,,,,,,,,0,0,0,0,,,,,,,,,,,,,,,,,,,,,,,,,,,,,,,,,,,,,,,,,,,,,,,,,,,,,,,,,,,,,,,,,,,,,,,,,,,,,,,,,,,,,,,,,,,,,,,,,,Maddy,001,2023-12-14_09h39.59.070,Gen_Run1_Tone,2023.1.0,59.960073546427516,
,,,,,,,,,,,,,,,,,,,,,,,,,,,,,,,,,,,,,,,,,,,,,,,,,,,,,,,,,,,,,,,,,,,,,,,,,,,,,,,,,,,,,,,,,,,,,,,,,,,,,,,,,,,,,,,,,,,,,,,,,,,,654.3619220696855,654.3619220696855,a,1.9726671800017357,Maddy,001,2023-12-14_09h39.59.070,Gen_Run1_Tone,2023.1.0,59.960073546427516,
