RunNumH,SetNumH,BattleNumH,FirstStimH,SecondStimH,ConfidenceH,OutcomeH,OutcomeNumH,ToneH,RunNumL,SetNumL,BattleNumL,FirstStimL,SecondStimL,ConfidenceL,OutcomeL,OutcomeNumL,ToneL,RunNumA,SetNumA,BattleNumA,FirstStimA,SecondStimA,ConfidenceA,OutcomeA,OutcomeNumA,ToneA,FullLoop.thisRepN,FullLoop.thisTrialN,FullLoop.thisN,FullLoop.thisIndex,loopH.thisRepN,loopH.thisTrialN,loopH.thisN,loopH.thisIndex,loop1.thisRepN,loop1.thisTrialN,loop1.thisN,loop1.thisIndex,loopL.thisRepN,loopL.thisTrialN,loopL.thisN,loopL.thisIndex,loop2.thisRepN,loop2.thisTrialN,loop2.thisN,loop2.thisIndex,loopA.thisRepN,loopA.thisTrialN,loopA.thisN,loopA.thisIndex,loop3.thisRepN,loop3.thisTrialN,loop3.thisN,loop3.thisIndex,trigger_image.started,trigger_resp.started,trigger_resp.keys,trigger_resp.rt,wait.started,firststim_img_loop1.started,isi_conf_stim1_loop1.started,conf_img_stim1_loop1.started,conf_resp_stim1_loop1.started,conf_resp_stim1_loop1.keys,conf_resp_stim1_loop1.rt,isi_stim_1,isi_stim_loop1.started,isi_stim_loop1.stopped,secondstim_img_loop1.started,isi_conf_stim2_loop1.started,conf_img_stim2_loop1.started,conf_resp_stim2_loop1.started,conf_resp_stim2_loop1.keys,conf_resp_stim2_loop1.rt,isi_outcome.started,outcome_img_loop1.started,Tone_loop1.started,Tone_loop1.stopped,jitter_iti_1,iti_loop1.started,iti_loop1.stopped,firststim_img_loop2.started,isi_conf_stim1_loop2.started,conf_img_stim1_loop2.started,conf_resp_stim1_loop2.started,conf_resp_stim1_loop2.keys,conf_resp_stim1_loop2.rt,isi_stim_2,isi_stim_loop2.started,isi_stim_loop2.stopped,secondstim_img_loop2.started,isi_conf_loop2.started,conf_img_stim2_loop2.started,conf_resp_stim2_loop2.started,conf_resp_stim2_loop2.keys,conf_resp_stim2_loop2.rt,outcome_image_loop2.started,Tone_loop2.started,Tone_loop2.stopped,jitter_iti_2,iti_loop2.started,iti_loop2.stopped,firststim_img_loop3.started,isi_conf_stim1_loop3.started,conf_img_stim1_loop3.started,conf_resp_stim1_loop3.started,conf_resp_stim1_loop3.keys,conf_resp_stim1_loop3.rt,isi_stim_3,isi_stim_loop3.started,isi_stim_loop3.stopped,secondstim_img_loop3.started,isi_conf_stim2_loop3.started,conf_img_stim2_loop3.started,conf_resp_stim2_loop3.started,conf_resp_stim2_loop3.keys,conf_resp_stim2_loop3.rt,outcome_img_loop3.started,Tone_loop3.started,Tone_loop3.stopped,jitter_iti_3,iti_loop3.started,iti_loop3.stopped,completion_prompt.started,completion_prompt_resp.started,completion_prompt_resp.keys,completion_prompt_resp.rt,participant,run,date,expName,psychopyVersion,frameRate,
,,,,,,,,,,,,,,,,,,,,,,,,,,,,,,,,,,,,,,,,,,,,,,,,,,,,,,,12.859828986460343,12.859828986460343,t,23.701590356417,,,,,,,,,,,,,,,,,,,,,,,,,,,,,,,,,,,,,,,,,,,,,,,,,,,,,,,,,,,,,,,,,,,,,,Maddy,003,2023-12-14_10h01.20.460,Gen_Run3_Tone,2023.1.0,59.9463733386448,
3,1,48,img/Agent_HW.png,img/AW.png,img/confidence.png,img/won.png,1,img/Silent.wav,,,,,,,,,,,,,,,,,,,0,0,0,0,0,0,0,0,0,0,0,23,,,,,,,,,,,,,,,,,,,,,36.59155934350565,41.613905286299996,42.58958928240463,42.84295632049907,42.84295632049907,['a'],[1.1916585576254874],1.0,44.05753084726166,45.0614174939692,45.0614174939692,46.05846012674738,46.31096472975332,46.31096472975332,['b'],[0.3202780045103282],46.65935550048016,46.977832688135095,47.09275534641929,48.39519493968692,2.0,48.410701135289855,50.413871266762726,,,,,,,,,,,,,,,,,,,,,,,,,,,,,,,,,,,,,,,,,,,,,,,Maddy,003,2023-12-14_10h01.20.460,Gen_Run3_Tone,2023.1.0,59.9463733386448,
3,1,44,img/Agent_HW.png,img/HM.png,img/confidence.png,img/lost.png,0,img/WhiteNoiseLong.wav,,,,,,,,,,,,,,,,,,,0,0,0,0,0,0,0,0,0,1,1,19,,,,,,,,,,,,,,,,,,,,,,50.413871266762726,51.41351656476036,51.669321005931124,51.669321005931124,['a'],[0.7172003742307425],2.0,52.41386671573855,54.41666194959544,54.41666194959544,55.41656836750917,55.67214667540975,55.67214667540975,['c'],[0.5050214371876791],56.19920998450834,56.47361423727125,56.63281377693638,57.93410279310774,2.0,57.951032916782424,59.95435039047152,,,,,,,,,,,,,,,,,,,,,,,,,,,,,,,,,,,,,,,,,,,,,,,Maddy,003,2023-12-14_10h01.20.460,Gen_Run3_Tone,2023.1.0,59.9463733386448,
3,1,42,img/Agent_HW.png,img/LM.png,img/confidence.png,img/lost.png,0,img/WhiteNoiseLong.wav,,,,,,,,,,,,,,,,,,,0,0,0,0,0,0,0,0,0,2,2,17,,,,,,,,,,,,,,,,,,,,,,59.95435039047152,60.95258911140263,61.204810407944024,61.204810407944024,['a'],[0.6645926885539666],2.0,61.90335436607711,63.90698159963358,63.90698159963358,64.90557644481305,65.15786487027071,65.15786487027071,['b'],[0.16435816430021077],65.33934942469932,65.61040463054087,65.7727364706574,67.07364945148584,2.0,67.09049111302011,69.09381768887397,,,,,,,,,,,,,,,,,,,,,,,,,,,,,,,,,,,,,,,,,,,,,,,Maddy,003,2023-12-14_10h01.20.460,Gen_Run3_Tone,2023.1.0,59.9463733386448,
3,1,46,img/Agent_HW.png,img/AS.png,img/confidence.png,img/lost.png,0,img/WhiteNoiseLong.wav,,,,,,,,,,,,,,,,,,,0,0,0,0,0,0,0,0,0,3,3,21,,,,,,,,,,,,,,,,,,,,,,69.09381768887397,70.09278344945051,70.34456015960313,70.34456015960313,['a'],[0.42458116298075765],0.5,70.79284292680677,71.30076000664849,71.30076000664849,72.3106700455537,72.56298378645442,72.56298378645442,['b'],[0.09126423252746463],72.67731929465663,72.94661606592126,73.11092735382263,74.41264332085848,1.5,74.42930663574953,75.93285152269527,,,,,,,,,,,,,,,,,,,,,,,,,,,,,,,,,,,,,,,,,,,,,,,Maddy,003,2023-12-14_10h01.20.460,Gen_Run3_Tone,2023.1.0,59.9463733386448,
3,1,29,img/Agent_HM.png,img/AS.png,img/confidence.png,img/won.png,1,img/Silent.wav,,,,,,,,,,,,,,,,,,,0,0,0,0,0,0,0,0,0,4,4,4,,,,,,,,,,,,,,,,,,,,,,75.93285152269527,76.9306610171916,77.18577738769818,77.18577738769818,['a'],[0.050398975843563676],0.5,77.26400952099357,77.7667050572345,77.7667050572345,78.76540600019507,79.01784119871445,79.01784119871445,['a'],[0.32168230589013547],79.3673495510593,79.69419622735586,79.81630025033374,81.12345393863507,2.0,81.13543416291941,83.13751487294212,,,,,,,,,,,,,,,,,,,,,,,,,,,,,,,,,,,,,,,,,,,,,,,Maddy,003,2023-12-14_10h01.20.460,Gen_Run3_Tone,2023.1.0,59.9463733386448,
3,1,33,img/Agent_HS.png,img/LS.png,img/confidence.png,img/lost.png,0,img/WhiteNoiseLong.wav,,,,,,,,,,,,,,,,,,,0,0,0,0,0,0,0,0,0,5,5,8,,,,,,,,,,,,,,,,,,,,,,83.13751487294212,84.13712433085311,84.3906335911015,84.3906335911015,['c'],[0.9078665057895705],2.0,85.31997677800246,87.32387451804243,87.32387451804243,88.32245855440851,88.57465908641461,88.57465908641461,['a'],[0.3866052912781015],88.98906510847155,89.24855509412009,89.42298292738852,90.7244326545624,0.5,90.74120462720748,91.24579826020636,,,,,,,,,,,,,,,,,,,,,,,,,,,,,,,,,,,,,,,,,,,,,,,Maddy,003,2023-12-14_10h01.20.460,Gen_Run3_Tone,2023.1.0,59.9463733386448,
3,1,31,img/Agent_HM.png,img/AM.png,img/confidence.png,img/won.png,1,img/Silent.wav,,,,,,,,,,,,,,,,,,,0,0,0,0,0,0,0,0,0,6,6,6,,,,,,,,,,,,,,,,,,,,,,91.24579826020636,92.24191957793664,92.49427228770219,92.49427228770219,['b'],[0.3651434010826051],1.0,92.89225876354612,93.89513335749507,93.89513335749507,94.89430022018496,95.1475440938957,95.1475440938957,['c'],[0.37685738562140614],95.54397209943272,95.85927375114989,95.97765781180934,97.2831913055852,0.5,97.29651979578193,97.79808352817781,,,,,,,,,,,,,,,,,,,,,,,,,,,,,,,,,,,,,,,,,,,,,,,Maddy,003,2023-12-14_10h01.20.460,Gen_Run3_Tone,2023.1.0,59.9463733386448,
3,1,37,img/Agent_HS.png,img/HW.png,img/confidence.png,img/won.png,1,img/Silent.wav,,,,,,,,,,,,,,,,,,,0,0,0,0,0,0,0,0,0,7,7,12,,,,,,,,,,,,,,,,,,,,,,97.79808352817781,98.79650514689274,99.04875687893946,99.04875687893946,['c'],[0.8256606858922169],1.0,99.89947625272907,100.91682166513056,100.91682166513056,101.9153991593048,102.16770692681894,102.16770692681894,['c'],[0.32160863478202373],102.51612955529708,102.82692276511807,102.94915677919053,104.25395669112913,1.0,104.2683037762763,105.27203540084884,,,,,,,,,,,,,,,,,,,,,,,,,,,,,,,,,,,,,,,,,,,,,,,Maddy,003,2023-12-14_10h01.20.460,Gen_Run3_Tone,2023.1.0,59.9463733386448,
3,1,40,img/Agent_HS.png,img/AW.png,img/confidence.png,img/won.png,1,img/Silent.wav,,,,,,,,,,,,,,,,,,,0,0,0,0,0,0,0,0,0,8,8,15,,,,,,,,,,,,,,,,,,,,,,105.27203540084884,106.28519834438339,106.53727969434112,106.53727969434112,['c'],[0.4501524195075035],0.5,107.01895138481632,107.52188784535974,107.52188784535974,108.52094206807669,108.77369385317434,108.77369385317434,['c'],[0.4746444944757968],109.27033840620425,109.58168030914385,109.70432392284275,111.01342264132109,2.0,111.03838575596455,113.042215798283,,,,,,,,,,,,,,,,,,,,,,,,,,,,,,,,,,,,,,,,,,,,,,,Maddy,003,2023-12-14_10h01.20.460,Gen_Run3_Tone,2023.1.0,59.9463733386448,
3,1,36,img/Agent_HS.png,img/LM.png,img/confidence.png,img/won.png,1,img/Silent.wav,,,,,,,,,,,,,,,,,,,0,0,0,0,0,0,0,0,0,9,9,11,,,,,,,,,,,,,,,,,,,,,,113.042215798283,114.0410922432784,114.29310646443628,114.29310646443628,['c'],[0.3823383424896747],0.5,114.70771415741183,115.21433872252237,115.21433872252237,116.22535695624538,116.47801658138633,116.47801658138633,['b'],[0.3115432894555852],116.80927185958717,117.12080889125355,117.24333218517714,118.55365003168117,1.5,118.57729730720166,120.08147792704403,,,,,,,,,,,,,,,,,,,,,,,,,,,,,,,,,,,,,,,,,,,,,,,Maddy,003,2023-12-14_10h01.20.460,Gen_Run3_Tone,2023.1.0,59.9463733386448,
3,1,47,img/Agent_HW.png,img/AM.png,img/confidence.png,img/won.png,1,img/Silent.wav,,,,,,,,,,,,,,,,,,,0,0,0,0,0,0,0,0,0,10,10,22,,,,,,,,,,,,,,,,,,,,,,120.08147792704403,121.07922626601066,121.33117079827935,121.33117079827935,['a'],[1.0120922953356057],1.0,122.3632740334142,123.36609572067391,123.36609572067391,124.36451904603746,124.61996025172994,124.61996025172994,['b'],[0.2503678575158119],124.89843262673821,125.20899117004592,125.33253078334965,126.63461055455264,1.0,126.64950974611565,127.65261047321837,,,,,,,,,,,,,,,,,,,,,,,,,,,,,,,,,,,,,,,,,,,,,,,Maddy,003,2023-12-14_10h01.20.460,Gen_Run3_Tone,2023.1.0,59.9463733386448,
3,1,38,img/Agent_HS.png,img/AS.png,img/confidence.png,img/won.png,1,img/Silent.wav,,,,,,,,,,,,,,,,,,,0,0,0,0,0,0,0,0,0,11,11,13,,,,,,,,,,,,,,,,,,,,,,127.65261047321837,128.6510995051358,128.90331198391505,128.90331198391505,['c'],[0.29519769875332713],1.0,129.21818782261107,130.2213437318569,130.2213437318569,131.21942856849637,131.4732279619202,131.4732279619202,['c'],[0.3461581674637273],131.85482817154843,132.16892463283148,132.30421634609812,133.61296263802797,2.0,133.63804152153898,135.64164031052496,,,,,,,,,,,,,,,,,,,,,,,,,,,,,,,,,,,,,,,,,,,,,,,Maddy,003,2023-12-14_10h01.20.460,Gen_Run3_Tone,2023.1.0,59.9463733386448,
3,1,30,img/Agent_HM.png,img/LW.png,img/confidence.png,img/won.png,1,img/Silent.wav,,,,,,,,,,,,,,,,,,,0,0,0,0,0,0,0,0,0,12,12,5,,,,,,,,,,,,,,,,,,,,,,135.64164031052496,136.6409175376175,136.8941215891391,136.8941215891391,['a'],[0.2764272205531597],0.5,137.1908837314695,137.6933619522024,137.6933619522024,138.69182225537952,138.94386122305878,138.94386122305878,['b'],[0.33236717083491385],139.2934933085926,139.61339641548693,139.74253247000743,,1.0,141.04439208144322,142.04855293245055,,,,,,,,,,,,,,,,,,,,,,,,,,,,,,,,,,,,,,,,,,,,,,,Maddy,003,2023-12-14_10h01.20.460,Gen_Run3_Tone,2023.1.0,59.9463733386448,
3,1,27,img/Agent_HM.png,img/HS.png,img/confidence.png,img/lost.png,0,img/WhiteNoiseLong.wav,,,,,,,,,,,,,,,,,,,0,0,0,0,0,0,0,0,0,13,13,2,,,,,,,,,,,,,,,,,,,,,,142.04855293245055,143.04605949379038,143.29952352738474,143.29952352738474,['a'],[0.33164525125175714],1.5,143.66183301014826,145.1651585905347,145.1651585905347,146.16485110623762,146.41867922851816,146.41867922851816,['b'],[0.6434456784045324],147.08090932283085,147.3556827843422,147.51469345295337,148.81539736723062,0.5,148.83219465543516,149.33494537393562,,,,,,,,,,,,,,,,,,,,,,,,,,,,,,,,,,,,,,,,,,,,,,,Maddy,003,2023-12-14_10h01.20.460,Gen_Run3_Tone,2023.1.0,59.9463733386448,
3,1,34,img/Agent_HS.png,img/LW.png,img/confidence.png,img/lost.png,0,img/WhiteNoiseLong.wav,,,,,,,,,,,,,,,,,,,0,0,0,0,0,0,0,0,0,14,14,9,,,,,,,,,,,,,,,,,,,,,,149.33494537393562,150.33300432609394,150.58554021804594,150.58554021804594,['a'],[1.024758314830251],0.5,151.6354030163493,152.1374357973691,152.1374357973691,153.13544923847076,153.3876312817447,153.3876312817447,['b'],[0.5835107080638409],154.00249400746543,154.27181723201647,154.43657253738493,155.7376925937133,1.0,155.75424383755308,156.7567222006619,,,,,,,,,,,,,,,,,,,,,,,,,,,,,,,,,,,,,,,,,,,,,,,Maddy,003,2023-12-14_10h01.20.460,Gen_Run3_Tone,2023.1.0,59.9463733386448,
3,1,28,img/Agent_HM.png,img/LM.png,img/confidence.png,img/lost.png,0,img/WhiteNoiseLong.wav,,,,,,,,,,,,,,,,,,,0,0,0,0,0,0,0,0,0,15,15,3,,,,,,,,,,,,,,,,,,,,,,156.7567222006619,157.75537933921441,158.00770275120158,158.00770275120158,['c'],[0.5554522706661373],0.5,158.58923628705088,159.09169004566502,159.09169004566502,160.09110039263032,160.34408143977635,160.34408143977635,['a'],[0.3642138371942565],160.74079929408617,161.01011028757785,161.17421478449833,162.47528961405624,2.0,162.4919591868529,164.49827043653931,,,,,,,,,,,,,,,,,,,,,,,,,,,,,,,,,,,,,,,,,,,,,,,Maddy,003,2023-12-14_10h01.20.460,Gen_Run3_Tone,2023.1.0,59.9463733386448,
3,1,45,img/Agent_HW.png,img/HS.png,img/confidence.png,img/lost.png,0,img/WhiteNoiseLong.wav,,,,,,,,,,,,,,,,,,,0,0,0,0,0,0,0,0,0,16,16,20,,,,,,,,,,,,,,,,,,,,,,164.49827043653931,165.5108127227286,165.74633230431937,165.74633230431937,['b'],[0.6587684074183926],2.0,166.43065347941592,168.44862324697897,168.44862324697897,169.44691686576698,169.69943256210536,169.69943256210536,['b'],[1.8927104610484093],171.61678556911647,171.89237993676215,172.0657649972476,,1.0,173.3681127150776,174.38648895348888,,,,,,,,,,,,,,,,,,,,,,,,,,,,,,,,,,,,,,,,,,,,,,,Maddy,003,2023-12-14_10h01.20.460,Gen_Run3_Tone,2023.1.0,59.9463733386448,
3,1,43,img/Agent_HW.png,img/LW.png,img/confidence.png,img/lost.png,0,img/WhiteNoiseLong.wav,,,,,,,,,,,,,,,,,,,0,0,0,0,0,0,0,0,0,17,17,18,,,,,,,,,,,,,,,,,,,,,,174.38648895348888,175.38473990559578,175.6385648989817,175.6385648989817,['b'],[2.9459498974028975],1.0,178.6040271052625,179.60915535129607,179.60915535129607,180.62170929962303,180.87398805387784,180.87398805387784,['b'],[1.323109362856485],182.22294145543128,182.49183573795017,182.65732121185866,183.95752023754176,1.5,183.97418127697892,185.47735183511395,,,,,,,,,,,,,,,,,,,,,,,,,,,,,,,,,,,,,,,,,,,,,,,Maddy,003,2023-12-14_10h01.20.460,Gen_Run3_Tone,2023.1.0,59.9463733386448,
3,1,32,img/Agent_HM.png,img/AW.png,img/confidence.png,img/won.png,1,img/Silent.wav,,,,,,,,,,,,,,,,,,,0,0,0,0,0,0,0,0,0,18,18,7,,,,,,,,,,,,,,,,,,,,,,185.47735183511395,186.47578938270453,186.72809203027282,186.72809203027282,['a'],[3.750376248615794],1.0,190.51208845537622,191.51502278260887,191.51502278260887,192.51421723642852,192.76724237238523,192.76724237238523,['c'],[0.28189139522146434],193.0804246298503,193.38203654717654,193.51424943548628,194.82367412699386,1.0,194.84902181033976,195.85390514985193,,,,,,,,,,,,,,,,,,,,,,,,,,,,,,,,,,,,,,,,,,,,,,,Maddy,003,2023-12-14_10h01.20.460,Gen_Run3_Tone,2023.1.0,59.9463733386448,
3,1,41,img/Agent_HW.png,img/LS.png,img/confidence.png,img/lost.png,0,img/WhiteNoiseLong.wav,,,,,,,,,,,,,,,,,,,0,0,0,0,0,0,0,0,0,19,19,16,,,,,,,,,,,,,,,,,,,,,,195.85390514985193,196.851120724692,197.10499919357244,197.10499919357244,['a'],[0.445483835414052],0.5,197.58385943679605,198.086305515375,198.086305515375,199.08485769398976,199.33733157697134,199.33733157697134,['b'],[0.5378039251081645],199.90221260674298,200.17591285996605,200.3357944970252,201.63770473946352,1.5,201.65419113007374,203.15676008863375,,,,,,,,,,,,,,,,,,,,,,,,,,,,,,,,,,,,,,,,,,,,,,,Maddy,003,2023-12-14_10h01.20.460,Gen_Run3_Tone,2023.1.0,59.9463733386448,
3,1,39,img/Agent_HS.png,img/AM.png,img/confidence.png,img/won.png,1,img/Silent.wav,,,,,,,,,,,,,,,,,,,0,0,0,0,0,0,0,0,0,20,20,14,,,,,,,,,,,,,,,,,,,,,,203.15676008863375,204.15575827588327,204.4091096695047,204.4091096695047,['b'],[0.24429582548327744],2.0,204.67260832851753,206.67595623771194,206.67595623771194,207.67485799826682,207.9266793661518,207.9266793661518,['c'],[0.1255135996034369],208.0747303396929,208.37419043609407,208.5084080876317,209.81369724380784,1.0,209.8284550665412,210.83146733150352,,,,,,,,,,,,,,,,,,,,,,,,,,,,,,,,,,,,,,,,,,,,,,,Maddy,003,2023-12-14_10h01.20.460,Gen_Run3_Tone,2023.1.0,59.9463733386448,
3,1,26,img/Agent_HM.png,img/HW.png,img/confidence.png,img/lost.png,0,img/WhiteNoiseLong.wav,,,,,,,,,,,,,,,,,,,0,0,0,0,0,0,0,0,0,21,21,1,,,,,,,,,,,,,,,,,,,,,,210.83146733150352,211.8287827463355,212.08277385518886,212.08277385518886,['a'],[0.41545107029378414],0.5,212.52792915748432,213.03313178557437,213.03313178557437,214.0456720807124,214.29812036373187,214.29812036373187,['c'],[0.2310870863730088],214.5627767109545,214.83656855521258,214.9965662455419,216.29767094179988,1.0,216.31430353678297,217.3195208137622,,,,,,,,,,,,,,,,,,,,,,,,,,,,,,,,,,,,,,,,,,,,,,,Maddy,003,2023-12-14_10h01.20.460,Gen_Run3_Tone,2023.1.0,59.9463733386448,
3,1,35,img/Agent_HS.png,img/HM.png,img/confidence.png,img/lost.png,0,img/WhiteNoiseLong.wav,,,,,,,,,,,,,,,,,,,0,0,0,0,0,0,0,0,0,22,22,10,,,,,,,,,,,,,,,,,,,,,,217.3195208137622,218.33206338447053,218.58424770319834,218.58424770319834,['a'],[0.3908255910500884],0.5,219.00030122650787,219.50471878843382,219.50471878843382,220.5011291016126,220.76965047768317,220.76965047768317,['b'],[0.8425353429047391],221.63507818093058,221.90828634554055,222.08489529751242,223.38578210945707,2.0,223.4025435576914,225.40581296023447,,,,,,,,,,,,,,,,,,,,,,,,,,,,,,,,,,,,,,,,,,,,,,,Maddy,003,2023-12-14_10h01.20.460,Gen_Run3_Tone,2023.1.0,59.9463733386448,
3,1,25,img/Agent_HM.png,img/LS.png,img/confidence.png,img/lost.png,0,img/WhiteNoiseLong.wav,,,,,,,,,,,,,,,,,,,0,0,0,0,0,0,0,0,0,23,23,0,,,,,,,,,,,,,,,,,,,,,,225.40581296023447,226.40480744978413,226.6567573864013,226.6567573864013,['a'],[0.23157832154538482],1.0,226.92147602688055,227.92445017630234,227.92445017630234,228.9230330749415,229.1778877566103,229.1778877566103,['a'],[0.35212523967493325],229.55722834076732,229.8290626395028,229.99025755582844,231.29129227879457,0.5,231.30810834025033,231.82520500617102,,,,,,,,,,,,,,,,,,,,,,,,,,,,,,,,,,,,,,,,,,,,,,,Maddy,003,2023-12-14_10h01.20.460,Gen_Run3_Tone,2023.1.0,59.9463733386448,
,,,,,,,,,3,1,6,img/Agent_LM.png,img/AS.png,img/confidence.png,img/won.png,1,img/Silent.wav,,,,,,,,,,0,0,0,0,,,,,,,,,0,0,0,0,0,0,0,5,,,,,,,,,,,,,,,,,,,,,,,,,,,,,238.51328312139958,,,,,,,231.82520500617102,232.8092704374576,233.0615142050665,233.0615142050665,['a'],[2.009307301370427],2.0,235.09455895063002,237.10398088314105,237.10398088314105,238.11368612200022,238.3519582708832,238.3519582708832,['b'],[0.1283597492147237],238.82888144848403,238.94727830912453,240.25313720712438,1.5,240.2671623013448,241.78432609606534,,,,,,,,,,,,,,,,,,,,,,,,,,Maddy,003,2023-12-14_10h01.20.460,Gen_Run3_Tone,2023.1.0,59.9463733386448,
,,,,,,,,,3,1,23,img/Agent_LW.png,img/AM.png,img/confidence.png,img/won.png,1,img/Silent.wav,,,,,,,,,,0,0,0,0,,,,,,,,,0,0,0,0,0,1,1,22,,,,,,,,,,,,,,,,,,,,,,,,,,,,,246.41879784176126,,,,,,,241.78432609606534,242.78288481687196,243.03523638891056,243.03523638891056,['a'],[1.184155770810321],0.5,244.25074218621012,244.75319480709732,244.75319480709732,245.75293141172733,246.00711850263178,246.00711850263178,['a'],[0.38290040439460427],246.72957313165534,246.85254926080816,248.15515667619184,2.0,248.17027062317356,250.17959641339257,,,,,,,,,,,,,,,,,,,,,,,,,,Maddy,003,2023-12-14_10h01.20.460,Gen_Run3_Tone,2023.1.0,59.9463733386448,
,,,,,,,,,3,1,2,img/Agent_LM.png,img/HS.png,img/confidence.png,img/won.png,1,img/Silent.wav,,,,,,,,,,0,0,0,0,,,,,,,,,0,0,0,0,0,2,2,1,,,,,,,,,,,,,,,,,,,,,,,,,,,,,258.7280510702403,,,,,,,250.17959641339257,251.1732737858547,251.42662859288976,251.42662859288976,['a'],[3.6844898506533355],0.5,255.141679990571,255.64440368674695,255.64440368674695,256.64301645196974,256.8968445742503,256.8968445742503,['b'],[1.8115596449933946],259.03984893730376,259.16150752056853,260.46446537133306,2.0,260.4792857718421,262.4825739477528,,,,,,,,,,,,,,,,,,,,,,,,,,Maddy,003,2023-12-14_10h01.20.460,Gen_Run3_Tone,2023.1.0,59.9463733386448,
,,,,,,,,,3,1,8,img/Agent_LM.png,img/AW.png,img/confidence.png,img/won.png,1,img/Silent.wav,,,,,,,,,,0,0,0,0,,,,,,,,,0,0,0,0,0,3,3,7,,,,,,,,,,,,,,,,,,,,,,,,,,,,,267.6173422265565,,,,,,,262.4825739477528,263.48118785070255,263.73325327178463,263.73325327178463,['a'],[0.30315844085998833],1.0,264.06631306454074,265.07357293588575,265.07357293588575,266.0670170640806,266.32082982640713,266.32082982640713,['c'],[1.278305690502748],267.92849696509074,268.05119661448987,269.3545108739054,2.0,269.36911680339836,271.3748059734935,,,,,,,,,,,,,,,,,,,,,,,,,,Maddy,003,2023-12-14_10h01.20.460,Gen_Run3_Tone,2023.1.0,59.9463733386448,
,,,,,,,,,3,1,13,img/Agent_LS.png,img/HW.png,img/confidence.png,img/won.png,1,img/Silent.wav,,,,,,,,,,0,0,0,0,,,,,,,,,0,0,0,0,0,4,4,12,,,,,,,,,,,,,,,,,,,,,,,,,,,,,276.023311915691,,,,,,,271.3748059734935,272.3871710508829,272.6230595567031,272.6230595567031,['c'],[1.5541005914565176],0.5,274.2053457320435,274.7095769830048,274.7095769830048,275.7067863001721,275.9600788138341,275.9600788138341,['c'],[0.04514130775351077],276.34224392974284,276.45707158357834,277.7631139481673,0.5,277.7767490692204,278.2798698496772,,,,,,,,,,,,,,,,,,,,,,,,,,Maddy,003,2023-12-14_10h01.20.460,Gen_Run3_Tone,2023.1.0,59.9463733386448,
,,,,,,,,,3,1,16,img/Agent_LS.png,img/AW.png,img/confidence.png,img/won.png,1,img/Silent.wav,,,,,,,,,,0,0,0,0,,,,,,,,,0,0,0,0,0,5,5,15,,,,,,,,,,,,,,,,,,,,,,,,,,,,,282.1293675353518,,,,,,,278.2798698496772,279.29270653577987,279.54481633007526,279.54481633007526,['c'],[0.012560490635223687],0.5,279.57639049878344,280.0788630307652,280.0788630307652,281.07753040920943,281.3292758305324,281.3292758305324,['c'],[0.7640839030500501],282.44360280549154,282.5780571147101,283.883232777589,1.0,283.89692421862856,284.8987108131405,,,,,,,,,,,,,,,,,,,,,,,,,,Maddy,003,2023-12-14_10h01.20.460,Gen_Run3_Tone,2023.1.0,59.9463733386448,
,,,,,,,,,3,1,12,img/Agent_LS.png,img/HM.png,img/confidence.png,img/won.png,1,img/Silent.wav,,,,,,,,,,0,0,0,0,,,,,,,,,0,0,0,0,0,6,6,11,,,,,,,,,,,,,,,,,,,,,,,,,,,,,289.2178254405735,,,,,,,284.8987108131405,285.8974928227253,286.1495343504939,286.1495343504939,['c'],[0.6876557155046612],0.5,286.86439972161315,287.3680731772911,287.3680731772911,288.36538916104473,288.6178852306912,288.6178852306912,['c'],[0.57014637789689],289.5270479490282,289.6504464780213,290.95344870211557,1.0,290.9678543827031,291.97100118990056,,,,,,,,,,,,,,,,,,,,,,,,,,Maddy,003,2023-12-14_10h01.20.460,Gen_Run3_Tone,2023.1.0,59.9463733386448,
,,,,,,,,,3,1,14,img/Agent_LS.png,img/AS.png,img/confidence.png,img/won.png,1,img/Silent.wav,,,,,,,,,,0,0,0,0,,,,,,,,,0,0,0,0,0,7,7,13,,,,,,,,,,,,,,,,,,,,,,,,,,,,,296.8725595747819,,,,,,,291.97100118990056,292.9686730133835,293.22119297645986,293.22119297645986,['c'],[1.7609410781878978],0.5,295.0038050111616,295.5061754275812,295.5061754275812,296.50623800535686,296.758720706217,296.758720706217,['c'],[0.08347245026379824],297.1829201448709,297.3055441319942,298.61283378477674,1.0,298.6395320094889,299.64474530436564,,,,,,,,,,,,,,,,,,,,,,,,,,Maddy,003,2023-12-14_10h01.20.460,Gen_Run3_Tone,2023.1.0,59.9463733386448,
,,,,,,,,,3,1,1,img/Agent_LM.png,img/LS.png,img/confidence.png,img/lost.png,0,img/WhiteNoiseLong.wav,,,,,,,,,,0,0,0,0,,,,,,,,,0,0,0,0,0,8,8,0,,,,,,,,,,,,,,,,,,,,,,,,,,,,,304.16018451331183,,,,,,,299.64474530436564,300.6421474746894,300.89579668152146,300.89579668152146,['b'],[0.1453624062705785],1.5,301.0746688997606,302.58296997949947,302.58296997949947,303.57731039158534,303.84545317234006,303.84545317234006,['a'],[0.2902532038278878],304.43564348551445,304.5941000566585,305.89633513451554,1.0,305.9131540405797,306.92091254284605,,,,,,,,,,,,,,,,,,,,,,,,,,Maddy,003,2023-12-14_10h01.20.460,Gen_Run3_Tone,2023.1.0,59.9463733386448,
,,,,,,,,,3,1,22,img/Agent_LW.png,img/AS.png,img/confidence.png,img/won.png,1,img/Silent.wav,,,,,,,,,,0,0,0,0,,,,,,,,,0,0,0,0,0,9,9,21,,,,,,,,,,,,,,,,,,,,,,,,,,,,,311.1653602614533,,,,,,,306.92091254284605,307.9295164134819,308.18176302546635,308.18176302546635,['a'],[0.3912852529902011],1.0,308.5971728514414,309.6003079962684,309.6003079962684,310.5983493129024,310.850500636152,310.850500636152,['b'],[0.28903862670995295],311.47934493620414,311.5991022938164,312.9033017439069,2.0,312.91703954944387,314.9211082404945,,,,,,,,,,,,,,,,,,,,,,,,,,Maddy,003,2023-12-14_10h01.20.460,Gen_Run3_Tone,2023.1.0,59.9463733386448,
,,,,,,,,,3,1,24,img/Agent_LW.png,img/AW.png,img/confidence.png,img/won.png,1,img/Silent.wav,,,,,,,,,,0,0,0,0,,,,,,,,,0,0,0,0,0,10,10,23,,,,,,,,,,,,,,,,,,,,,,,,,,,,,318.83726971037686,,,,,,,314.9211082404945,315.9186751040397,316.17095243604854,316.17095243604854,['a'],[0.31903612066525966],0.5,316.5192939979024,317.02717296232004,317.02717296232004,318.0215193477925,318.2890221289126,318.2890221289126,['b'],[0.5234699244610965],319.1490530708106,319.27096936057785,320.57420511334203,1.0,320.58963052683976,321.59711425588466,,,,,,,,,,,,,,,,,,,,,,,,,,Maddy,003,2023-12-14_10h01.20.460,Gen_Run3_Tone,2023.1.0,59.9463733386448,
,,,,,,,,,3,1,11,img/Agent_LS.png,img/LW.png,img/confidence.png,img/won.png,1,img/Silent.wav,,,,,,,,,,0,0,0,0,,,,,,,,,0,0,0,0,0,11,11,10,,,,,,,,,,,,,,,,,,,,,,,,,,,,,326.62647857691627,,,,,,,321.59711425588466,322.59124474809505,322.84475002612453,322.84475002612453,['c'],[0.5074503069045022],1.5,323.3740954316454,324.87734193645883,324.87734193645883,325.8761387371924,326.1280030560447,326.1280030560447,['c'],[0.47629398677963763],326.9264970374061,327.06049652022773,328.363466317649,1.0,328.3803842102643,329.39714736514725,,,,,,,,,,,,,,,,,,,,,,,,,,Maddy,003,2023-12-14_10h01.20.460,Gen_Run3_Tone,2023.1.0,59.9463733386448,
,,,,,,,,,3,1,3,img/Agent_LM.png,img/LW.png,img/confidence.png,img/won.png,1,img/Silent.wav,,,,,,,,,,0,0,0,0,,,,,,,,,0,0,0,0,0,12,12,2,,,,,,,,,,,,,,,,,,,,,,,,,,,,,334.8655756142689,,,,,,,329.39714736514725,330.39574704598635,330.6484777822625,330.6484777822625,['b'],[0.43057155958376825],2.0,331.0966356784338,333.1002338984981,333.1002338984981,334.0983281218214,334.3504123162711,334.3504123162711,['c'],[0.4978980988962576],335.1767596505815,335.2990405979566,336.6035580566386,2.0,336.61735900875647,338.6208869712427,,,,,,,,,,,,,,,,,,,,,,,,,,Maddy,003,2023-12-14_10h01.20.460,Gen_Run3_Tone,2023.1.0,59.9463733386448,
,,,,,,,,,3,1,10,img/Agent_LS.png,img/LM.png,img/confidence.png,img/won.png,1,img/Silent.wav,,,,,,,,,,0,0,0,0,,,,,,,,,0,0,0,0,0,13,13,9,,,,,,,,,,,,,,,,,,,,,,,,,,,,,345.52355156000704,,,,,,,338.6208869712427,339.61916124774143,339.8714024553774,339.8714024553774,['c'],[1.9413322289474308],2.0,341.8373971413821,343.84100560157094,343.84100560157094,344.8392110426212,345.09169118339196,345.09169118339196,['c'],[0.41275738296099007],345.83451401419006,345.9569397435756,347.26328959246166,0.5,347.276622633799,347.7936112107709,,,,,,,,,,,,,,,,,,,,,,,,,,Maddy,003,2023-12-14_10h01.20.460,Gen_Run3_Tone,2023.1.0,59.9463733386448,
,,,,,,,,,3,1,17,img/Agent_LW.png,img/LS.png,img/confidence.png,img/lost.png,0,img/WhiteNoiseLong.wav,,,,,,,,,,0,0,0,0,,,,,,,,,0,0,0,0,0,14,14,16,,,,,,,,,,,,,,,,,,,,,,,,,,,,,352.628447784693,,,,,,,347.7936112107709,348.79220349597745,349.0444734324701,349.0444734324701,['a'],[0.4948687673313543],1.5,349.559108802001,351.0640861502616,351.0640861502616,352.06247648003045,352.3165239088703,352.3165239088703,['a'],[0.28715389885473996],352.9035085348878,353.0620305282995,354.362847935874,1.0,354.37953201518394,355.38483035890386,,,,,,,,,,,,,,,,,,,,,,,,,,Maddy,003,2023-12-14_10h01.20.460,Gen_Run3_Tone,2023.1.0,59.9463733386448,
,,,,,,,,,3,1,19,img/Agent_LW.png,img/HS.png,img/confidence.png,img/won.png,1,img/Silent.wav,,,,,,,,,,0,0,0,0,,,,,,,,,0,0,0,0,0,15,15,18,,,,,,,,,,,,,,,,,,,,,,,,,,,,,359.1662551232148,,,,,,,355.38483035890386,356.3810102721909,356.6334468929563,356.6334468929563,['a'],[0.37200448161456734],0.5,357.0327577413991,357.53522230882663,357.53522230882663,358.5325724259019,358.7848898646189,358.7848898646189,['b'],[0.34932204126380384],359.4686350401025,359.6004522663774,360.9039135836065,1.0,360.9185758329695,361.9204153341707,,,,,,,,,,,,,,,,,,,,,,,,,,Maddy,003,2023-12-14_10h01.20.460,Gen_Run3_Tone,2023.1.0,59.9463733386448,
,,,,,,,,,3,1,4,img/Agent_LM.png,img/HW.png,img/confidence.png,img/won.png,1,img/Silent.wav,,,,,,,,,,0,0,0,0,,,,,,,,,0,0,0,0,0,16,16,3,,,,,,,,,,,,,,,,,,,,,,,,,,,,,365.7043594215065,,,,,,,361.9204153341707,362.9190536993556,363.1712141248863,363.1712141248863,['b'],[0.460230280412361],0.5,363.6533158950042,364.16155468148645,364.16155468148645,365.17062162735965,365.4228938394226,365.4228938394226,['b'],[0.2532026293920353],366.0173124168068,366.138144973875,367.44317670795135,1.5,367.4564813048346,368.9617834883975,,,,,,,,,,,,,,,,,,,,,,,,,,Maddy,003,2023-12-14_10h01.20.460,Gen_Run3_Tone,2023.1.0,59.9463733386448,
,,,,,,,,,3,1,9,img/Agent_LS.png,img/HS.png,img/confidence.png,img/lost.png,0,img/WhiteNoiseLong.wav,,,,,,,,,,0,0,0,0,,,,,,,,,0,0,0,0,0,17,17,8,,,,,,,,,,,,,,,,,,,,,,,,,,,,,373.2762926784344,,,,,,,368.9617834883975,369.97424413915724,370.2263721378986,370.2263721378986,['c'],[0.32463199307676405],0.5,370.57444233994465,371.07972603465896,371.07972603465896,372.09235820523463,372.34476581274066,372.34476581274066,['b'],[0.9105192330898717],373.5511688241968,373.7100933062378,375.0110321715474,0.5,375.02774953085463,375.53011482732836,,,,,,,,,,,,,,,,,,,,,,,,,,Maddy,003,2023-12-14_10h01.20.460,Gen_Run3_Tone,2023.1.0,59.9463733386448,
,,,,,,,,,3,1,20,img/Agent_LW.png,img/HM.png,img/confidence.png,img/won.png,1,img/Silent.wav,,,,,,,,,,0,0,0,0,,,,,,,,,0,0,0,0,0,18,18,19,,,,,,,,,,,,,,,,,,,,,,,,,,,,,380.1646198530216,,,,,,,375.53011482732836,376.52915539673995,376.78105214238167,376.78105214238167,['a'],[0.7189320710022002],1.0,377.529619040899,378.5343439449789,378.5343439449789,379.53122444450855,379.7839941495331,379.7839941495331,['b'],[0.3530721546849236],380.4792399762664,380.59871914747634,381.90309722849634,1.0,381.9172489003977,382.92124249821063,,,,,,,,,,,,,,,,,,,,,,,,,,Maddy,003,2023-12-14_10h01.20.460,Gen_Run3_Tone,2023.1.0,59.9463733386448,
,,,,,,,,,3,1,18,img/Agent_LW.png,img/LM.png,img/confidence.png,img/lost.png,0,img/WhiteNoiseLong.wav,,,,,,,,,,0,0,0,0,,,,,,,,,0,0,0,0,0,19,19,17,,,,,,,,,,,,,,,,,,,,,,,,,,,,,387.4036799125606,,,,,,,382.92124249821063,383.9341241263319,384.1697128278902,384.1697128278902,['a'],[0.20225240057334304],1.5,384.40117538068444,385.90461616090033,385.90461616090033,386.90295244636945,387.15939660265576,387.15939660265576,['b'],[0.21372915839310735],387.6810457992833,387.8370268518105,389.1379890415119,1.0,389.15429025888443,390.15963980252855,,,,,,,,,,,,,,,,,,,,,,,,,,Maddy,003,2023-12-14_10h01.20.460,Gen_Run3_Tone,2023.1.0,59.9463733386448,
,,,,,,,,,3,1,5,img/Agent_LM.png,img/HM.png,img/confidence.png,img/won.png,1,img/Silent.wav,,,,,,,,,,0,0,0,0,,,,,,,,,0,0,0,0,0,20,20,4,,,,,,,,,,,,,,,,,,,,,,,,,,,,,395.7092322364915,,,,,,,390.15963980252855,391.15713356400374,391.41277786297724,391.41277786297724,['a'],[0.3772297231480479],2.0,391.82541236595716,393.8299003279535,393.8299003279535,394.8419607655378,395.09408108424395,395.09408108424395,['b'],[0.5849150094436482],396.0233924133936,396.1428038867656,397.4533498577075,0.5,397.47784079483245,397.9827171653742,,,,,,,,,,,,,,,,,,,,,,,,,,Maddy,003,2023-12-14_10h01.20.460,Gen_Run3_Tone,2023.1.0,59.9463733386448,
,,,,,,,,,3,1,7,img/Agent_LM.png,img/AM.png,img/confidence.png,img/won.png,1,img/Silent.wav,,,,,,,,,,0,0,0,0,,,,,,,,,0,0,0,0,0,21,21,6,,,,,,,,,,,,,,,,,,,,,,,,,,,,,403.21456713124644,,,,,,,397.9827171653742,398.9798755670199,399.23317974293604,399.23317974293604,['a'],[0.36384661972988397],1.0,399.62874758895487,400.6315220585093,400.6315220585093,401.63010495714843,401.8830547154648,401.8830547154648,['a'],[1.3078765181126073],403.5259195585968,403.64821188370695,404.95300752902403,1.5,404.9664500813233,406.46985644381493,,,,,,,,,,,,,,,,,,,,,,,,,,Maddy,003,2023-12-14_10h01.20.460,Gen_Run3_Tone,2023.1.0,59.9463733386448,
,,,,,,,,,3,1,21,img/Agent_LW.png,img/HW.png,img/confidence.png,img/won.png,1,img/Silent.wav,,,,,,,,,,0,0,0,0,,,,,,,,,0,0,0,0,0,22,22,20,,,,,,,,,,,,,,,,,,,,,,,,,,,,,411.70395664847456,,,,,,,406.46985644381493,407.4677256717114,407.7198363194475,407.7198363194475,['a'],[0.3795214907731861],2.0,408.1181951328181,410.1218112729257,410.1218112729257,411.12173504184466,411.37540871091187,411.37540871091187,['b'],[0.3098687658784911],412.01586487994064,412.1377828763565,413.4433908944484,1.0,413.4565040603047,414.4582070282195,,,,,,,,,,,,,,,,,,,,,,,,,,Maddy,003,2023-12-14_10h01.20.460,Gen_Run3_Tone,2023.1.0,59.9463733386448,
,,,,,,,,,3,1,15,img/Agent_LS.png,img/AM.png,img/confidence.png,img/won.png,1,img/Silent.wav,,,,,,,,,,0,0,0,0,,,,,,,,,0,0,0,0,0,23,23,14,,,,,,,,,,,,,,,,,,,,,,,,,,,,,418.5756765436381,,,,,,,414.4582070282195,415.4575337485876,415.7105238980148,415.7105238980148,['c'],[0.3115683204960078],0.5,416.04088260792196,416.5430320111336,416.5430320111336,417.54291055339854,417.795454694191,417.795454694191,['c'],[0.7569480494130403],418.88710577087477,419.0095522647956,420.3137451726943,0.5,420.32747273822315,420.84511895035394,,,,,,,,,,,,,,,,,,,,,,,,,,Maddy,003,2023-12-14_10h01.20.460,Gen_Run3_Tone,2023.1.0,59.9463733386448,
,,,,,,,,,,,,,,,,,,3,1,51,img/Agent_AM.png,img/LW.png,img/confidence.png,img/lost.png,0,img/WhiteNoiseLong.wav,0,0,0,0,,,,,,,,,,,,,,,,,0,0,0,0,0,0,0,2,,,,,,,,,,,,,,,,,,,,,424.7800184718799,,,,,,,,,,,,,,,,,,,,,,,,,,,,420.84511895035394,421.84461918170564,422.09724638029,422.09724638029,['a'],[0.49173561355564743],0.5,422.61186695855577,423.11468850367237,423.11468850367237,424.1131001667818,424.36547904543113,424.36547904543113,['b'],[0.3818459693575278],425.0376055253437,425.2136344953673,426.51450964505784,1.0,426.531232693349,427.53420172282495,,,,,Maddy,003,2023-12-14_10h01.20.460,Gen_Run3_Tone,2023.1.0,59.9463733386448,
,,,,,,,,,,,,,,,,,,3,1,70,img/Agent_AW.png,img/HW.png,img/confidence.png,img/lost.png,0,img/WhiteNoiseLong.wav,0,0,0,0,,,,,,,,,,,,,,,,,0,0,0,0,0,1,1,21,,,,,,,,,,,,,,,,,,,,,432.68566631223075,,,,,,,,,,,,,,,,,,,,,,,,,,,,427.53420172282495,428.53314927895553,428.784977473435,428.784977473435,['b'],[0.6861387741519138],1.5,429.5009112172993,431.0036485667806,431.0036485667806,432.00167879019864,432.2541631977074,432.2541631977074,['b'],[0.3989012485835701],432.95491558127105,433.11937079785855,434.421633751248,0.5,434.43821087956894,434.9423092950601,,,,,Maddy,003,2023-12-14_10h01.20.460,Gen_Run3_Tone,2023.1.0,59.9463733386448,
,,,,,,,,,,,,,,,,,,3,1,72,img/Agent_AW.png,img/AS.png,img/confidence.png,img/won.png,1,img/Silent.wav,0,0,0,0,,,,,,,,,,,,,,,,,0,0,0,0,0,2,2,23,,,,,,,,,,,,,,,,,,,,,438.2061239716131,,,,,,,,,,,,,,,,,,,,,,,,,,,,434.9423092950601,435.93916959909257,436.19493791577406,436.19493791577406,['a'],[0.14803106244653463],0.5,436.3724857614143,436.8741294227075,436.8741294227075,437.8733668276109,438.125940834987,438.125940834987,['a'],[0.04893835436087102],438.5222889117431,438.64081291898617,439.9439038897399,1.0,439.95811984606553,440.96093470673077,,,,,Maddy,003,2023-12-14_10h01.20.460,Gen_Run3_Tone,2023.1.0,59.9463733386448,
,,,,,,,,,,,,,,,,,,3,1,68,img/Agent_AW.png,img/HS.png,img/confidence.png,img/lost.png,0,img/WhiteNoiseLong.wav,0,0,0,0,,,,,,,,,,,,,,,,,0,0,0,0,0,3,3,19,,,,,,,,,,,,,,,,,,,,,445.17785191664007,,,,,,,,,,,,,,,,,,,,,,,,,,,,440.96093470673077,441.958965214435,442.21128606644925,442.21128606644925,['a'],[0.5377288318704814],0.5,442.77760723768733,443.2793877166696,443.2793877166696,444.2777194508817,444.5298781696474,444.5298781696474,['a'],[0.6161017650738358],445.43739793787245,445.6116687578382,446.9139866089681,0.5,446.93063115060795,447.43251886509825,,,,,Maddy,003,2023-12-14_10h01.20.460,Gen_Run3_Tone,2023.1.0,59.9463733386448,
,,,,,,,,,,,,,,,,,,3,1,56,img/Agent_AM.png,img/HW.png,img/confidence.png,img/lost.png,0,img/WhiteNoiseLong.wav,0,0,0,0,,,,,,,,,,,,,,,,,0,0,0,0,0,4,4,7,,,,,,,,,,,,,,,,,,,,,450.8320057844976,,,,,,,,,,,,,,,,,,,,,,,,,,,,447.43251886509825,448.43078944378067,448.68319591355976,448.68319591355976,['b'],[0.2798835029825568],0.5,448.9807681532111,449.48350180499256,449.48350180499256,450.48176271258853,450.7348307997454,450.7348307997454,['a'],[0.06812070799060166],451.09169801010285,451.26619354097636,452.56681240641046,2.0,452.58332183700986,454.59340453357436,,,,,Maddy,003,2023-12-14_10h01.20.460,Gen_Run3_Tone,2023.1.0,59.9463733386448,
,,,,,,,,,,,,,,,,,,3,1,71,img/Agent_AW.png,img/AM.png,img/confidence.png,img/won.png,1,img/Silent.wav,0,0,0,0,,,,,,,,,,,,,,,,,0,0,0,0,0,5,5,22,,,,,,,,,,,,,,,,,,,,,458.721410149592,,,,,,,,,,,,,,,,,,,,,,,,,,,,454.59340453357436,455.6023059329018,455.8406403751578,455.8406403751578,['a'],[0.13779391266871244],1.0,456.002298309817,457.0077562266961,457.0077562266961,458.00506623717956,458.26085218938533,458.26085218938533,['b'],[0.4413946644635871],459.04041213705204,459.15487171986604,460.4635110608069,2.0,460.4893112949794,462.4928628662601,,,,,Maddy,003,2023-12-14_10h01.20.460,Gen_Run3_Tone,2023.1.0,59.9463733386448,
,,,,,,,,,,,,,,,,,,3,1,63,img/Agent_AS.png,img/AM.png,img/confidence.png,img/won.png,1,img/Silent.wav,0,0,0,0,,,,,,,,,,,,,,,,,0,0,0,0,0,6,6,14,,,,,,,,,,,,,,,,,,,,,467.19377596094273,,,,,,,,,,,,,,,,,,,,,,,,,,,,462.4928628662601,463.4910890717292,463.74341931042727,463.74341931042727,['c'],[0.3205305909505114],0.5,464.09325335139874,464.5967567093903,464.5967567093903,465.6092315823771,465.861599367694,465.861599367694,['a'],[1.3117625958984718],467.5054896324873,467.62734476672483,468.9330091048032,0.5,468.94612682180014,469.4476276920177,,,,,Maddy,003,2023-12-14_10h01.20.460,Gen_Run3_Tone,2023.1.0,59.9463733386448,
,,,,,,,,,,,,,,,,,,3,1,49,img/Agent_AM.png,img/LS.png,img/confidence.png,img/lost.png,0,img/WhiteNoiseLong.wav,0,0,0,0,,,,,,,,,,,,,,,,,0,0,0,0,0,7,7,0,,,,,,,,,,,,,,,,,,,,,474.1487785819918,,,,,,,,,,,,,,,,,,,,,,,,,,,,469.4476276920177,470.44644298159983,470.70336671103723,470.70336671103723,['b'],[0.5525515078334138],1.5,471.2812323378166,472.7887941468507,472.7887941468507,473.79846980352886,474.05074998002965,474.05074998002965,['a'],[0.07414466887712479],474.4230733237928,474.5827504454413,475.8840588037856,1.5,475.9009596296819,477.40329733502585,,,,,Maddy,003,2023-12-14_10h01.20.460,Gen_Run3_Tone,2023.1.0,59.9463733386448,
,,,,,,,,,,,,,,,,,,3,1,57,img/Agent_AS.png,img/LS.png,img/confidence.png,img/lost.png,0,img/WhiteNoiseLong.wav,0,0,0,0,,,,,,,,,,,,,,,,,0,0,0,0,0,8,8,8,,,,,,,,,,,,,,,,,,,,,481.0202905484475,,,,,,,,,,,,,,,,,,,,,,,,,,,,477.40329733502585,478.4018523581326,478.65421900560614,478.65421900560614,['c'],[0.49680355738382787],0.5,479.16906628606375,479.6743764341809,479.6743764341809,480.67106009821873,480.9240280609811,480.9240280609811,['a'],[0.07596710347570479],481.28953156864736,481.4538496831432,482.75626680534333,1.0,482.77285701816436,483.7744598616846,,,,,Maddy,003,2023-12-14_10h01.20.460,Gen_Run3_Tone,2023.1.0,59.9463733386448,
,,,,,,,,,,,,,,,,,,3,1,61,img/Agent_AS.png,img/HM.png,img/confidence.png,img/lost.png,0,img/WhiteNoiseLong.wav,0,0,0,0,,,,,,,,,,,,,,,,,0,0,0,0,0,9,9,12,,,,,,,,,,,,,,,,,,,,,488.0924842141103,,,,,,,,,,,,,,,,,,,,,,,,,,,,483.7744598616846,484.7737331065582,485.02702135348227,485.02702135348227,['b'],[0.4318959320662543],1.0,485.49052900099196,486.49594339786563,486.49594339786563,487.50835057301447,487.7612479936797,487.7612479936797,['a'],[0.30268967675510794],488.3638275619596,488.5257694289088,489.82691167178564,1.0,489.8434518224094,490.84903717029374,,,,,Maddy,003,2023-12-14_10h01.20.460,Gen_Run3_Tone,2023.1.0,59.9463733386448,
,,,,,,,,,,,,,,,,,,3,1,69,img/Agent_AW.png,img/HM.png,img/confidence.png,img/lost.png,0,img/WhiteNoiseLong.wav,0,0,0,0,,,,,,,,,,,,,,,,,0,0,0,0,0,10,10,20,,,,,,,,,,,,,,,,,,,,,494.51317673921585,,,,,,,,,,,,,,,,,,,,,,,,,,,,490.84903717029374,491.84584058553446,492.0997665566392,492.0997665566392,['a'],[0.42830084078013897],0.5,492.5451289343182,493.05063620232977,493.05063620232977,494.0471807732247,494.315388691728,494.315388691728,['a'],[0.17872004059609026],494.76949830004014,494.946959731495,496.2479358590208,1.5,496.26468678272795,497.7678940342739,,,,,Maddy,003,2023-12-14_10h01.20.460,Gen_Run3_Tone,2023.1.0,59.9463733386448,
,,,,,,,,,,,,,,,,,,3,1,59,img/Agent_AS.png,img/LW.png,img/confidence.png,img/lost.png,0,img/WhiteNoiseLong.wav,0,0,0,0,,,,,,,,,,,,,,,,,0,0,0,0,0,11,11,10,,,,,,,,,,,,,,,,,,,,,502.168635637383,,,,,,,,,,,,,,,,,,,,,,,,,,,,497.7678940342739,498.7673242923338,499.0188683270244,499.0188683270244,['b'],[0.7180867025163025],0.5,499.76811419415753,500.27243476058356,500.27243476058356,501.26925268245395,501.52203120524064,501.52203120524064,['a'],[0.6170378711540252],502.4390329235466,502.6022690121084,503.90488979639485,0.5,503.92218571540434,504.4396396433003,,,,,Maddy,003,2023-12-14_10h01.20.460,Gen_Run3_Tone,2023.1.0,59.9463733386448,
,,,,,,,,,,,,,,,,,,3,1,66,img/Agent_AW.png,img/LM.png,img/confidence.png,img/lost.png,0,img/WhiteNoiseLong.wav,0,0,0,0,,,,,,,,,,,,,,,,,0,0,0,0,0,12,12,17,,,,,,,,,,,,,,,,,,,,,508.6402542135911,,,,,,,,,,,,,,,,,,,,,,,,,,,,504.4396396433003,505.43785987538286,505.69017276295926,505.69017276295926,['a'],[0.808741086628288],0.5,506.52271956042387,507.02444371941965,507.02444371941965,508.0233542978531,508.27568880317267,508.27568880317267,['a'],[0.33520023606251925],508.90917153609917,509.07395045037845,510.3761818304192,1.0,510.3928684698185,511.39690729416907,,,,,Maddy,003,2023-12-14_10h01.20.460,Gen_Run3_Tone,2023.1.0,59.9463733386448,
,,,,,,,,,,,,,,,,,,3,1,62,img/Agent_AS.png,img/HW.png,img/confidence.png,img/lost.png,0,img/WhiteNoiseLong.wav,0,0,0,0,,,,,,,,,,,,,,,,,0,0,0,0,0,13,13,13,,,,,,,,,,,,,,,,,,,,,515.5282286773436,,,,,,,,,,,,,,,,,,,,,,,,,,,,511.39690729416907,512.3938136781799,512.6482379956869,512.6482379956869,['c'],[0.7056860696757212],0.5,513.3771938831778,513.8795910374029,513.8795910374029,514.8780558916042,515.1302860059077,515.1302860059077,['a'],[0.37261717475485057],515.7975806307513,515.9618205231149,517.2638385699829,1.0,517.2824346837588,518.299324416439,,,,,Maddy,003,2023-12-14_10h01.20.460,Gen_Run3_Tone,2023.1.0,59.9463733386448,
,,,,,,,,,,,,,,,,,,3,1,65,img/Agent_AW.png,img/LS.png,img/confidence.png,img/lost.png,0,img/WhiteNoiseLong.wav,0,0,0,0,,,,,,,,,,,,,,,,,0,0,0,0,0,14,14,16,,,,,,,,,,,,,,,,,,,,,522.8176678015152,,,,,,,,,,,,,,,,,,,,,,,,,,,,518.299324416439,519.2982827814994,519.5501556337113,519.5501556337113,['a'],[0.19055320718325675],1.0,519.7645970406011,520.7706423349446,520.7706423349446,521.7674298211932,522.0214758277871,522.0214758277871,['a'],[0.7796165520558134],523.0861479332671,523.2673426959431,524.5682576678228,0.5,524.5850034717005,525.0875047324225,,,,,Maddy,003,2023-12-14_10h01.20.460,Gen_Run3_Tone,2023.1.0,59.9463733386448,
,,,,,,,,,,,,,,,,,,3,1,50,img/Agent_AM.png,img/LM.png,img/confidence.png,img/lost.png,0,img/WhiteNoiseLong.wav,0,0,0,0,,,,,,,,,,,,,,,,,0,0,0,0,0,15,15,1,,,,,,,,,,,,,,,,,,,,,530.1555694048293,,,,,,,,,,,,,,,,,,,,,,,,,,,,525.0875047324225,526.0864059241721,526.3384713452542,526.3384713452542,['a'],[0.5414755319943652],1.5,526.9040569434874,528.4066873419797,528.4066873419797,529.4051820628811,529.6571994128171,529.6571994128171,['a'],[0.46773904061410576],530.424598513986,530.5890147618251,531.8910160264932,1.5,531.9076085147681,533.4102400511038,,,,,Maddy,003,2023-12-14_10h01.20.460,Gen_Run3_Tone,2023.1.0,59.9463733386448,
,,,,,,,,,,,,,,,,,,3,1,58,img/Agent_AS.png,img/LM.png,img/confidence.png,img/lost.png,0,img/WhiteNoiseLong.wav,0,0,0,0,,,,,,,,,,,,,,,,,0,0,0,0,0,16,16,9,,,,,,,,,,,,,,,,,,,,,537.0772562049096,,,,,,,,,,,,,,,,,,,,,,,,,,,,533.4102400511038,534.4096580781043,534.6655748747289,534.6655748747289,['a'],[0.3195077293785289],0.5,535.0093346080976,535.5137993877288,535.5137993877288,536.5109762782231,536.765670817811,536.765670817811,['a'],[0.2802353606093675],537.346924460493,537.5108725129161,538.8131223819219,0.5,538.8297868346563,539.3311665316578,,,,,Maddy,003,2023-12-14_10h01.20.460,Gen_Run3_Tone,2023.1.0,59.9463733386448,
,,,,,,,,,,,,,,,,,,3,1,54,img/Agent_AM.png,img/AS.png,img/confidence.png,img/lost.png,0,img/WhiteNoiseLong.wav,0,0,0,0,,,,,,,,,,,,,,,,,0,0,0,0,0,17,17,5,,,,,,,,,,,,,,,,,,,,,544.3993429905968,,,,,,,,,,,,,,,,,,,,,,,,,,,,539.3311665316578,540.3297949412372,540.5819212334463,540.5819212334463,['a'],[0.2632853257237002],2.0,540.8636229042895,542.8669193290407,542.8669193290407,543.8653767877258,544.1175596842077,544.1175596842077,['a'],[0.25032888865098357],544.670971920481,544.8328219119925,546.1343399058096,1.5,546.1506104032742,547.6536646237364,,,,,Maddy,003,2023-12-14_10h01.20.460,Gen_Run3_Tone,2023.1.0,59.9463733386448,
,,,,,,,,,,,,,,,,,,3,1,52,img/Agent_AM.png,img/HS.png,img/confidence.png,img/lost.png,0,img/WhiteNoiseLong.wav,0,0,0,0,,,,,,,,,,,,,,,,,0,0,0,0,0,18,18,3,,,,,,,,,,,,,,,,,,,,,551.9555137675488,,,,,,,,,,,,,,,,,,,,,,,,,,,,547.6536646237364,548.6521351668052,548.9044995388249,548.9044995388249,['a'],[0.3816826983820647],1.0,549.303203667514,550.3057773193577,550.3057773193577,551.3043383157346,551.5563633457059,551.5563633457059,['a'],[0.3815936674363911],552.226708919974,552.4051582264714,553.7058157762513,0.5,553.7222794113914,554.2250412231078,,,,,Maddy,003,2023-12-14_10h01.20.460,Gen_Run3_Tone,2023.1.0,59.9463733386448,
,,,,,,,,,,,,,,,,,,3,1,53,img/Agent_AM.png,img/HM.png,img/confidence.png,img/lost.png,0,img/WhiteNoiseLong.wav,0,0,0,0,,,,,,,,,,,,,,,,,0,0,0,0,0,19,19,4,,,,,,,,,,,,,,,,,,,,,558.0089093638817,,,,,,,,,,,,,,,,,,,,,,,,,,,,554.2250412231078,555.2246410100488,555.4784549101023,555.4784549101023,['a'],[0.5197593488264829],0.5,556.024224981782,556.5273725000443,556.5273725000443,557.525302883354,557.7774994332576,557.7774994332576,['a'],[0.2115375151624903],558.2781048729084,558.4425711829448,559.744812234072,0.5,559.7611120291986,560.2638260544045,,,,,Maddy,003,2023-12-14_10h01.20.460,Gen_Run3_Tone,2023.1.0,59.9463733386448,
,,,,,,,,,,,,,,,,,,3,1,67,img/Agent_AW.png,img/LW.png,img/confidence.png,img/lost.png,0,img/WhiteNoiseLong.wav,0,0,0,0,,,,,,,,,,,,,,,,,0,0,0,0,0,20,20,18,,,,,,,,,,,,,,,,,,,,,564.1804221551865,,,,,,,,,,,,,,,,,,,,,,,,,,,,560.2638260544045,561.262418339611,561.5137055211235,561.5137055211235,['a'],[0.35924914677161723],1.0,561.8951416063355,562.898519097711,562.898519097711,563.8979038447142,564.1513465450844,564.1513465450844,['a'],[0.011615282273851335],564.4536923285341,564.6304810493951,565.9316164655611,0.5,565.948290873901,566.45070338808,,,,,Maddy,003,2023-12-14_10h01.20.460,Gen_Run3_Tone,2023.1.0,59.9463733386448,
,,,,,,,,,,,,,,,,,,3,1,55,img/Agent_AM.png,img/AW.png,img/confidence.png,img/won.png,1,img/Silent.wav,0,0,0,0,,,,,,,,,,,,,,,,,0,0,0,0,0,21,21,6,,,,,,,,,,,,,,,,,,,,,570.9528599024052,,,,,,,,,,,,,,,,,,,,,,,,,,,,566.45070338808,567.448982784641,567.7012928277254,567.7012928277254,['a'],[0.569568102597259],0.5,568.299759616144,568.8050461553503,568.8050461553503,569.8010306553915,570.0530758809764,570.0530758809764,['b'],[0.8791168687166646],571.2545625574421,571.3852272155694,572.6935798365157,1.5,572.7204419012414,574.2255765472073,,,,,Maddy,003,2023-12-14_10h01.20.460,Gen_Run3_Tone,2023.1.0,59.9463733386448,
,,,,,,,,,,,,,,,,,,3,1,64,img/Agent_AS.png,img/AW.png,img/confidence.png,img/lost.png,0,img/WhiteNoiseLong.wav,0,0,0,0,,,,,,,,,,,,,,,,,0,0,0,0,0,22,22,15,,,,,,,,,,,,,,,,,,,,,578.3569343391573,,,,,,,,,,,,,,,,,,,,,,,,,,,,574.2255765472073,575.2378744957969,575.4902053034166,575.4902053034166,['c'],[0.6916771887335926],0.5,576.205243047676,576.7077619440388,576.7077619440388,577.7067220157478,577.9590866721701,577.9590866721701,['c'],[0.36496818356681615],578.6308920144802,578.7905341493664,580.0921929430915,2.0,580.1090772713069,582.1133982643951,,,,,Maddy,003,2023-12-14_10h01.20.460,Gen_Run3_Tone,2023.1.0,59.9463733386448,
,,,,,,,,,,,,,,,,,,3,1,60,img/Agent_AS.png,img/HS.png,img/confidence.png,img/lost.png,0,img/WhiteNoiseLong.wav,0,0,0,0,,,,,,,,,,,,,,,,,0,0,0,0,0,23,23,11,,,,,,,,,,,,,,,,,,,,,586.8297307990724,,,,,,,,,,,,,,,,,,,,,,,,,,,,582.1133982643951,583.11315705569,583.3625580871012,583.3625580871012,['c'],[0.847471020068042],1.0,584.2291232830612,585.2360802212497,585.2360802212497,586.2457720913226,586.4993063826114,586.4993063826114,['a'],[0.30758780729956925],587.0843840942252,587.2632606359897,588.5640638213372,2.0,588.5806992608123,590.58265140187,,,,,Maddy,003,2023-12-14_10h01.20.460,Gen_Run3_Tone,2023.1.0,59.9463733386448,
,,,,,,,,,,,,,,,,,,,,,,,,,,,0,0,0,0,,,,,,,,,,,,,,,,,,,,,,,,,,,,,,,,,,,,,,,,,,,,,,,,,,,,,,,,,,,,,,,,,,,,,,,,,,,,,,,,,,,,,,,,,,,,,,,,,,Maddy,003,2023-12-14_10h01.20.460,Gen_Run3_Tone,2023.1.0,59.9463733386448,
,,,,,,,,,,,,,,,,,,,,,,,,,,,,,,,,,,,,,,,,,,,,,,,,,,,,,,,,,,,,,,,,,,,,,,,,,,,,,,,,,,,,,,,,,,,,,,,,,,,,,,,,,,,,,,,,,,,,,,,,,,,,590.58265140187,590.58265140187,a,1.097418469027616,Maddy,003,2023-12-14_10h01.20.460,Gen_Run3_Tone,2023.1.0,59.9463733386448,
